sep=;
ACCELEROMETER X (m/s²);ACCELEROMETER Y (m/s²);ACCELEROMETER Z (m/s²);GRAVITY X (m/s²);GRAVITY Y (m/s²);GRAVITY Z (m/s²);LINEAR ACCELERATION X (m/s²);LINEAR ACCELERATION Y (m/s²);LINEAR ACCELERATION Z (m/s²);GYROSCOPE X (rad/s);GYROSCOPE Y (rad/s);GYROSCOPE Z (rad/s);LIGHT (lux);MAGNETIC FIELD X (μT);MAGNETIC FIELD Y (μT);MAGNETIC FIELD Z (μT);ORIENTATION X (°);ORIENTATION Y (°);ORIENTATION Z (°);PROXIMITY (i);ATMOSPHERIC PRESSURE (hPa);SOUND LEVEL (dB);LOCATION Latitude : ;LOCATION Longitude : ;LOCATION Altitude ( m);LOCATION Altitude-google ( m);LOCATION Altitude-atmospheric pressure ( m);LOCATION Speed ( Kmh);LOCATION Accuracy ( m);LOCATION ORIENTATION (°);Satellites in range;Time since start in ms ;YYYY-MO-DD HH-MI-SS_SSS
-0.98;6.41;7.38;-0.82;6.46;7.33;-0.08;-0.02;0.32;-0.23;-0.36;0.0;320.0;-31.56;29.46;6.96;64.36;-41.21;6.38;9.0;1010.16;48.893;24.786316;120.99741;;97.1150131;;;65.353;;0 / 19;5;2014-12-10 11:19:37:051
-0.68;6.3;7.54;-0.45;6.34;7.46;0.04;0.01;0.03;-0.04;0.0;0.0;320.0;-31.2;29.88;7.85;61.55;-40.31;3.45;9.0;1010.17;50.949;24.786316;120.99741;;97.1150131;;;65.353;;0 / 19;504;2014-12-10 11:19:37:550
-0.65;6.25;7.57;-0.43;6.29;7.5;0.03;-0.02;-0.01;-0.02;-0.03;0.01;320.0;-31.26;30.3;8.28;61.24;-39.94;3.28;9.0;1010.17;57.795;24.786316;120.99741;;97.1150131;;;65.353;;0 / 19;1005;2014-12-10 11:19:38:051
-0.64;6.18;7.77;-0.41;6.27;7.52;0.0;0.01;-0.1;0.0;0.0;0.0;320.0;-31.32;29.88;7.98;61.07;-39.78;3.12;9.0;1010.16;43.27;24.786316;120.99741;;97.1150131;;;65.353;;0 / 19;1508;2014-12-10 11:19:38:554
-0.56;6.24;7.65;-0.4;6.26;7.53;-0.01;0.0;0.01;-0.02;-0.04;0.02;320.0;-30.42;29.7;8.88;61.02;-39.7;3.04;9.0;1010.17;54.001;24.786316;120.99741;;97.1150131;;;65.353;;0 / 19;2005;2014-12-10 11:19:39:051
-0.54;6.11;7.62;-0.38;6.22;7.57;0.0;-0.02;0.07;-0.04;-0.03;0.01;320.0;-31.32;29.51;8.93;61.59;-39.37;2.87;9.0;1010.16;56.149;24.786316;120.99741;;97.1150131;;;65.353;;0 / 19;2505;2014-12-10 11:19:39:551
-0.5;6.12;7.67;-0.37;6.18;7.6;-0.01;0.02;0.06;-0.03;-0.01;0.02;320.0;-31.32;29.58;8.82;61.36;-39.08;2.79;9.0;1010.15;51.68;24.786316;120.99741;;97.1150131;;;65.353;;0 / 19;3004;2014-12-10 11:19:40:050
-0.26;6.1;7.33;-0.29;6.16;7.61;-0.14;-0.03;0.31;-0.01;-0.02;0.0;320.0;-31.2;29.7;9.05;61.12;-38.88;2.48;9.0;1010.16;42.254;24.786316;120.99741;;97.1150131;;;65.353;;0 / 19;3504;2014-12-10 11:19:40:550
-0.18;5.98;7.7;-0.25;6.11;7.65;0.05;0.04;0.19;0.0;0.01;0.0;320.0;-31.14;30.0;9.17;60.79;-38.73;1.8;9.0;1010.15;37.332;24.786316;120.99741;;97.1150131;;;65.353;;0 / 19;4004;2014-12-10 11:19:41:050
-0.22;5.89;7.71;-0.08;6.04;7.72;0.03;0.01;0.02;-0.01;-0.03;0.0;320.0;-31.2;28.98;8.93;61.33;-38.2;1.12;9.0;1010.16;53.524;24.786316;120.99741;;97.1150131;;;65.353;;0 / 19;4504;2014-12-10 11:19:41:550
0.13;5.8;7.94;0.06;5.91;7.82;-0.01;-0.02;-0.06;0.0;-0.07;0.02;320.0;-31.01;29.82;10.38;59.85;-37.08;-0.44;9.0;1010.16;64.274;24.786316;120.99741;;97.1150131;;;65.353;;0 / 19;5004;2014-12-10 11:19:42:050
0.06;5.76;8.04;0.16;5.88;7.84;0.07;-0.04;-0.08;0.0;0.0;0.0;320.0;-31.43;29.76;10.62;60.33;-36.86;-1.17;9.0;1010.15;63.816;24.786316;120.99741;;97.1150131;;;65.353;;0 / 19;5504;2014-12-10 11:19:42:550
0.17;5.71;7.92;0.22;5.85;7.86;0.03;-0.05;-0.05;-0.02;0.02;0.0;320.0;-30.96;29.51;10.32;59.32;-36.73;-1.46;9.0;1010.15;60.633;24.786316;120.99741;;97.1150131;;;65.353;;0 / 19;6004;2014-12-10 11:19:43:050
0.3;5.67;8.01;0.26;5.82;7.88;-0.03;0.0;0.03;0.01;0.0;0.0;320.0;-31.38;30.0;11.7;60.76;-36.48;-1.74;9.0;1010.15;49.834;24.786316;120.99741;;97.1150131;;;65.353;;0 / 19;6504;2014-12-10 11:19:43:550
0.28;5.69;7.94;0.3;5.81;7.89;-0.01;-0.01;-0.02;-0.02;-0.02;0.01;320.0;-31.5;28.85;10.5;60.78;-36.3;-2.18;9.0;1010.16;59.577;24.786316;120.99741;;97.1150131;;;65.353;;0 / 19;7005;2014-12-10 11:19:44:051
0.29;5.71;8.02;0.32;5.79;7.9;0.01;-0.01;-0.06;-0.02;-0.02;0.01;320.0;-31.14;30.54;11.4;58.49;-36.22;-2.32;9.0;1010.16;60.114;24.786316;120.99741;;97.1150131;;;65.353;;0 / 19;7504;2014-12-10 11:19:44:550
0.34;5.62;8.02;0.35;5.77;7.92;0.0;0.01;-0.01;0.0;0.0;0.0;320.0;-30.59;30.48;10.67;59.41;-36.05;-2.53;9.0;1010.16;35.813;24.786316;120.99741;;97.1150131;;;65.353;;0 / 19;8005;2014-12-10 11:19:45:051
0.31;5.64;8.01;0.37;5.75;7.93;0.01;-0.02;-0.02;-0.02;0.0;0.0;320.0;-31.08;29.88;11.4;59.33;-35.95;-2.6;9.0;1010.15;58.635;24.786316;120.99741;;97.1150131;;;65.353;;0 / 19;8504;2014-12-10 11:19:45:550
0.37;5.61;8.0;0.37;5.74;7.94;0.01;0.02;0.01;-0.01;0.0;0.0;320.0;-31.26;29.76;11.4;59.26;-35.87;-2.67;9.0;1010.15;39.227;24.786316;120.99741;;97.1150131;;;65.353;;0 / 19;9004;2014-12-10 11:19:46:050
0.34;5.64;7.99;0.38;5.72;7.95;-0.02;0.0;0.0;-0.02;-0.03;0.01;320.0;-31.62;29.64;11.46;59.96;-35.79;-2.67;9.0;1010.16;63.706;24.786316;120.99741;;97.1150131;;;65.353;;0 / 19;9505;2014-12-10 11:19:46:551
0.4;5.6;8.03;0.38;5.71;7.95;-0.02;0.01;-0.07;0.0;-0.04;0.01;320.0;-31.2;30.24;11.58;59.94;-35.66;-2.74;9.0;1010.16;48.249;24.786316;120.99741;;97.1150131;;;65.353;;0 / 19;10004;2014-12-10 11:19:47:050
0.37;5.6;7.99;0.4;5.69;7.96;0.0;0.0;0.0;0.0;0.02;0.0;320.0;-31.8;30.0;10.8;59.77;-35.57;-2.88;9.0;1010.16;52.626;24.786316;120.99741;;97.1150131;;;65.353;;0 / 19;10504;2014-12-10 11:19:47:550
0.33;5.6;8.09;0.38;5.68;7.98;0.0;-0.03;0.0;0.0;-0.01;0.0;320.0;-31.92;29.51;11.52;60.55;-35.45;-2.73;9.0;1010.16;51.876;24.786316;120.99741;;97.1150131;;;65.353;;0 / 19;11005;2014-12-10 11:19:48:051
0.38;5.59;7.98;0.4;5.68;7.98;0.0;0.02;0.0;0.01;0.01;0.0;320.0;-31.38;29.51;10.67;58.95;-35.41;-2.8;9.0;1010.16;41.662;24.786316;120.99741;;97.1150131;;;65.353;;0 / 19;11504;2014-12-10 11:19:48:550
0.39;5.61;7.95;0.4;5.67;7.98;-0.04;0.01;-0.08;0.01;0.0;0.0;320.0;-31.32;29.82;11.4;58.9;-35.36;-2.87;9.0;1010.17;46.617;24.786316;120.99741;;97.1150131;;;65.353;;0 / 19;12005;2014-12-10 11:19:49:051
0.51;5.57;7.64;0.45;5.68;7.97;-0.1;-0.01;0.32;0.02;-0.03;0.0;320.0;-31.67;29.46;11.4;60.66;-35.43;-3.23;9.0;1010.17;33.637;24.786316;120.99741;;97.1150131;;;65.353;;0 / 19;12504;2014-12-10 11:19:49:550
0.51;5.56;7.95;0.42;5.64;8.0;-0.07;0.0;0.12;0.05;-0.1;0.01;320.0;-31.92;29.7;11.52;60.34;-35.35;-3.23;9.0;1010.16;33.528;24.786316;120.99741;;97.1150131;;;65.353;;0 / 19;13004;2014-12-10 11:19:50:050
0.31;5.56;8.4;0.41;5.65;8.0;-0.1;-0.04;-0.06;0.01;-0.02;0.0;320.0;-31.32;29.93;11.21;58.76;-35.15;-2.93;9.0;1010.17;53.06;24.786316;120.99741;;97.1150131;;;65.353;;0 / 19;13505;2014-12-10 11:19:50:551
0.37;5.58;8.01;0.42;5.66;7.99;0.0;0.01;0.07;0.0;0.0;0.0;320.0;-31.14;29.82;11.46;58.81;-35.28;-3.01;9.0;1010.16;52.518;24.786316;120.99741;;97.1150131;;;65.353;;0 / 19;14004;2014-12-10 11:19:51:050
0.38;5.57;8.06;0.42;5.65;8.0;0.01;0.0;-0.02;0.0;0.0;0.0;320.0;-30.78;29.82;12.24;59.58;-35.19;-3.01;9.0;1010.16;46.879;24.786316;120.99741;;97.1150131;;;65.353;;0 / 19;14505;2014-12-10 11:19:51:551
0.42;5.54;7.91;0.43;5.64;8.0;0.0;0.0;0.09;0.0;0.02;0.0;320.0;-32.16;30.06;11.1;59.47;-35.14;-3.08;9.0;1010.16;50.044;24.786316;120.99741;;97.1150131;;;65.353;;0 / 19;15004;2014-12-10 11:19:52:050
0.37;5.53;8.09;0.43;5.63;8.01;-0.02;0.0;-0.05;0.0;0.0;0.0;320.0;-31.26;30.0;11.52;59.5;-35.07;-3.0;9.0;1010.16;56.167;24.786316;120.99741;;97.1150131;;;65.353;;0 / 19;15504;2014-12-10 11:19:52:550
0.4;5.55;8.03;0.43;5.62;8.02;0.01;0.0;0.03;0.0;0.0;0.0;320.0;-31.8;29.51;11.4;59.39;-35.02;-3.07;9.0;1010.16;52.886;24.786316;120.99741;;97.1150131;;;65.353;;0 / 19;16004;2014-12-10 11:19:53:050
0.28;5.57;8.41;0.41;5.61;8.02;-0.06;-0.02;0.12;0.02;-0.02;0.0;320.0;-31.56;29.51;11.04;59.42;-35.06;-3.07;9.0;1010.15;35.836;24.786316;120.99741;;97.1150131;;;65.353;;0 / 19;16505;2014-12-10 11:19:53:551
0.63;5.57;7.25;0.4;5.56;8.06;0.13;0.02;-0.76;0.08;-0.1;0.01;320.0;-31.26;29.22;11.64;60.36;-34.57;-2.84;9.0;1010.15;44.97;24.786316;120.99741;;97.1150131;;;65.353;;0 / 19;17005;2014-12-10 11:19:54:051
0.48;5.58;7.55;0.46;5.57;8.05;0.03;0.03;-0.25;0.07;-0.06;0.0;320.0;-31.14;30.3;11.21;58.37;-34.64;-3.27;9.0;1010.15;43.487;24.786316;120.99741;;97.1150131;;;65.353;;0 / 19;17505;2014-12-10 11:19:54:551
0.43;5.33;8.56;0.47;5.4;8.17;0.0;0.0;0.31;0.02;-0.06;0.0;320.0;-31.92;29.7;11.58;59.44;-33.99;-3.6;9.0;1010.15;34.008;24.786316;120.99741;;97.1150131;;;65.353;;0 / 19;18004;2014-12-10 11:19:55:050
0.48;5.24;8.22;0.56;5.36;8.19;0.02;-0.02;-0.02;-0.04;-0.05;-0.02;320.0;-32.46;30.3;11.21;58.25;-33.23;-3.64;9.0;1010.15;49.316;24.786316;120.99741;;97.1150131;;;65.353;;0 / 19;18504;2014-12-10 11:19:55:550
0.68;4.95;8.5;0.69;5.08;8.35;-0.1;0.0;0.09;-0.06;0.04;0.03;320.0;-31.08;29.04;12.42;57.99;-31.3;-4.93;9.0;1010.15;36.807;24.786316;120.99741;;97.1150131;;;65.353;;0 / 19;19004;2014-12-10 11:19:56:050
0.74;4.79;8.26;0.78;4.89;8.46;-0.05;0.04;-0.15;-0.05;-0.14;-0.01;320.0;-31.92;29.34;12.96;58.65;-29.92;-5.27;9.0;1010.15;39.772;24.786316;120.99741;;97.1150131;;;65.353;;0 / 19;19504;2014-12-10 11:19:56:550
0.47;4.18;8.55;0.44;4.34;8.78;-0.27;0.03;0.04;0.05;0.17;-0.04;320.0;-31.74;29.22;12.54;56.59;-25.7;-5.39;9.0;1010.14;35.289;24.786316;120.99741;;97.1150131;;;65.353;;0 / 19;20005;2014-12-10 11:19:57:051
0.53;4.16;8.54;0.5;4.26;8.81;0.0;0.12;-0.47;-0.16;-0.08;0.0;320.0;-31.62;29.7;11.82;55.67;-26.16;-1.95;9.0;1010.15;33.576;24.786316;120.99741;;97.1150131;;;65.353;;0 / 19;20505;2014-12-10 11:19:57:551
0.71;4.27;8.37;0.97;3.96;8.91;-0.37;0.23;-0.36;-0.46;0.31;0.31;320.0;-32.28;29.88;13.56;55.57;-24.99;-6.79;9.0;1010.15;57.995;24.786316;120.99741;;97.1150131;;;65.353;;0 / 19;21005;2014-12-10 11:19:58:051
1.02;2.98;8.98;0.71;3.18;9.24;0.05;0.02;-0.22;-0.12;-0.02;0.07;320.0;-32.04;30.06;11.82;52.39;-18.94;-4.39;9.0;1010.15;62.074;24.786316;120.99741;;97.1150131;;;65.353;;0 / 19;21504;2014-12-10 11:19:58:550
0.67;3.43;9.07;0.9;3.36;9.16;-0.27;0.09;0.05;0.15;-0.22;-0.17;320.0;-32.28;29.16;12.48;53.74;-20.05;-5.61;9.0;1010.15;51.252;24.786316;120.99741;;97.1150131;;;65.353;;0 / 19;22005;2014-12-10 11:19:59:051
-0.05;4.36;8.63;0.23;4.05;8.92;-0.09;0.49;-0.03;0.22;0.51;0.33;320.0;-31.85;28.98;12.0;55.29;-23.38;-3.44;9.0;1010.14;53.754;24.786316;120.99741;;97.1150131;;;65.353;;0 / 19;22504;2014-12-10 11:19:59:550
-0.22;4.71;8.16;0.43;4.59;8.65;-0.84;0.2;0.12;-0.02;0.01;0.0;320.0;-31.74;29.88;11.88;55.88;-27.42;-4.35;9.0;1010.14;37.384;24.786316;120.99741;;97.1150131;;;65.353;;0 / 19;23004;2014-12-10 11:20:00:050
-0.02;5.42;8.63;-0.23;5.18;8.31;-0.06;0.15;0.48;-0.16;-0.45;0.16;320.0;-31.38;28.68;9.24;58.48;-32.75;2.71;9.0;1010.14;54.218;24.786316;120.99741;;97.1150131;;;65.353;;0 / 19;23504;2014-12-10 11:20:00:550
0.22;5.08;7.84;-0.17;5.46;8.14;0.64;-0.59;0.39;-0.16;0.37;0.14;320.0;-31.26;28.62;10.01;59.47;-33.85;1.2;9.0;1010.14;62.2;24.786316;120.99741;;97.1150131;;;65.353;;0 / 19;24006;2014-12-10 11:20:01:052
-0.1;5.51;8.12;0.07;5.46;8.13;-0.12;0.02;0.05;0.13;-0.03;-0.04;320.0;-31.43;28.38;10.8;60.96;-33.88;-0.49;9.0;1010.14;62.507;24.786316;120.99741;;97.1150131;;;65.353;;0 / 19;24504;2014-12-10 11:20:01:550
-0.82;5.27;8.67;-0.27;5.42;8.16;0.16;-0.1;-0.18;-0.15;0.62;0.03;320.0;-31.62;27.78;10.01;61.41;-34.4;0.07;9.0;1010.14;59.904;24.786316;120.99741;;97.1150131;;;65.353;;0 / 19;25005;2014-12-10 11:20:02:051
0.0;5.44;8.31;0.08;5.38;8.19;0.03;0.06;0.09;0.02;0.08;-0.06;320.0;-31.38;28.26;10.8;60.41;-33.14;-0.91;9.0;1010.14;53.732;24.786316;120.99741;;97.1150131;;;65.353;;0 / 18;25504;2014-12-10 11:20:02:550
-0.03;5.46;8.21;0.11;5.48;8.12;0.03;-0.01;0.01;0.0;0.04;0.02;320.0;-31.85;28.5;11.58;61.36;-34.06;-0.85;9.0;1010.14;46.469;24.786316;120.99741;;97.1150131;;;65.353;;0 / 18;26005;2014-12-10 11:20:03:051
-0.38;5.45;8.02;0.19;5.54;8.08;-0.18;-0.08;-0.28;-0.06;0.3;0.02;320.0;-31.56;28.08;10.92;61.78;-34.43;-1.35;9.0;1010.14;54.731;24.786316;120.99741;;97.1150131;;;65.353;;0 / 19;26505;2014-12-10 11:20:03:551
-0.54;5.66;8.05;0.23;5.34;8.21;-0.23;0.22;-0.08;0.11;0.15;-0.15;320.0;-31.38;28.2;11.82;60.8;-32.61;-1.18;9.0;1010.14;47.922;24.786316;120.99741;;97.1150131;;;65.353;;0 / 19;27005;2014-12-10 11:20:04:051
-0.11;5.45;7.71;0.11;5.43;8.16;-0.07;0.04;-0.5;-0.24;0.04;0.15;320.0;-31.26;28.56;11.34;59.71;-33.88;-0.85;9.0;1010.14;42.974;24.786316;120.99741;;97.1150131;;;65.353;;0 / 19;27504;2014-12-10 11:20:04:550
0.21;5.39;8.17;0.25;5.56;8.06;0.02;-0.07;0.03;0.04;-0.03;-0.02;320.0;-31.62;27.9;11.46;61.41;-34.16;-2.05;9.0;1010.14;47.593;24.786316;120.99741;;97.1150131;;;65.353;;0 / 19;28004;2014-12-10 11:20:05:050
0.19;5.66;7.9;0.35;5.63;8.01;0.17;0.12;-0.01;0.11;0.05;-0.02;320.0;-31.38;28.26;12.0;61.46;-34.64;-3.13;9.0;1010.14;39.871;24.786316;120.99741;;97.1150131;;;65.353;;0 / 19;28504;2014-12-10 11:20:05:550
0.42;5.55;8.05;0.39;5.6;8.03;0.23;-0.22;0.17;-0.09;-0.26;0.05;320.0;-31.62;28.43;12.06;62.4;-34.86;-2.78;9.0;1010.14;35.541;24.786316;120.99741;;97.1150131;;;65.353;;0 / 19;29004;2014-12-10 11:20:06:050
0.21;5.42;7.96;0.06;5.58;8.06;0.01;0.02;0.12;0.1;0.39;0.07;320.0;-31.98;28.8;10.62;60.31;-34.65;-2.92;9.0;1010.13;34.27;24.786316;120.99741;;97.1150131;;;65.353;;0 / 19;29505;2014-12-10 11:20:06:551
0.58;5.38;7.69;0.73;5.6;8.01;0.22;-0.08;-0.23;-0.15;-0.16;-0.02;320.0;-31.56;29.4;12.17;61.25;-34.78;-2.71;9.0;1010.14;41.603;24.786316;120.99741;;97.1150131;;;65.353;;0 / 19;30005;2014-12-10 11:20:07:051
0.96;2.98;9.2;0.8;2.91;9.33;-0.24;-0.05;0.46;-0.21;0.24;0.07;320.0;-32.04;28.26;13.14;55.86;-21.94;-7.02;9.0;1010.14;44.393;24.786316;120.99741;;97.1150131;;;65.353;;0 / 19;30506;2014-12-10 11:20:07:552
0.69;4.33;8.81;0.25;4.39;8.76;0.43;-0.71;0.42;0.76;0.16;0.15;320.0;-31.14;28.8;10.5;55.64;-26.61;-1.63;9.0;1010.14;38.723;24.786316;120.99741;;97.1150131;;;65.353;;0 / 19;31004;2014-12-10 11:20:08:050
1.77;3.32;10.18;0.47;2.53;9.46;-0.57;-0.22;1.33;0.11;-1.42;-0.33;640.0;-31.98;26.51;9.78;53.61;-14.96;-2.84;9.0;1010.14;40.747;24.786316;120.99741;;97.1150131;;;65.353;;0 / 19;31504;2014-12-10 11:20:08:550
-1.22;4.36;9.29;-1.01;4.03;8.87;0.21;-0.06;0.23;-0.14;0.24;-0.02;320.0;-31.43;23.58;11.82;62.38;-25.19;3.62;9.0;1010.14;33.063;24.786316;120.99741;;97.1150131;;;65.353;;0 / 19;32005;2014-12-10 11:20:09:051
-0.89;4.3;8.98;-1.36;4.25;8.72;0.16;-0.01;0.27;0.06;-0.22;0.04;320.0;-31.2;23.04;9.66;63.28;-24.68;10.62;9.0;1010.14;32.941;24.786316;120.99741;;97.1150131;;;65.353;;0 / 19;32505;2014-12-10 11:20:09:551
-1.6;3.97;8.6;-1.37;4.28;8.71;-0.1;-0.13;-0.08;0.0;-0.01;0.1;320.0;-30.96;23.76;9.3;61.7;-25.58;8.85;9.0;1010.14;43.854;24.786316;120.99741;;97.1150131;;;65.353;;0 / 19;33004;2014-12-10 11:20:10:050
-1.54;3.98;8.7;-1.36;4.29;8.7;0.3;0.36;0.13;-0.02;0.02;0.17;320.0;-31.56;23.46;9.47;64.19;-25.97;8.88;9.0;1010.14;50.362;24.786316;120.99741;;97.1150131;;;65.353;;0 / 19;33504;2014-12-10 11:20:10:550
-2.53;4.74;8.85;-1.78;4.36;8.59;-1.01;-0.67;0.22;-0.67;0.41;-0.02;320.0;-31.26;24.42;6.6;61.61;-26.43;11.71;9.0;1010.14;42.06;24.786316;120.99741;;97.1150131;;;65.353;;0 / 19;34005;2014-12-10 11:20:11:051
1.4;4.8;9.6;-1.95;1.71;9.45;-6.82;-3.07;1.59;-0.96;1.59;-0.54;320.0;-30.78;24.66;7.02;57.29;-21.56;8.46;9.0;1010.14;40.279;24.786316;120.99741;;97.1150131;;;65.353;;0 / 19;34505;2014-12-10 11:20:11:551
-1.41;2.2;9.51;0.57;2.43;9.48;-0.86;-0.48;2.62;-0.12;0.38;0.46;320.0;-27.54;23.7;22.38;55.93;-14.18;6.47;9.0;1010.14;33.182;24.786316;120.99741;;97.1150131;;;65.353;;0 / 19;35005;2014-12-10 11:20:12:051
3.89;4.85;9.81;3.44;3.02;8.66;-2.71;-0.77;1.02;0.83;-1.79;0.05;320.0;-21.72;21.96;29.46;61.82;-15.94;-10.58;9.0;1010.14;33.195;24.786316;120.99741;;97.1150131;;;65.353;;0 / 19;35505;2014-12-10 11:20:12:551
1.49;3.6;10.22;1.05;3.7;9.01;-0.52;0.28;-1.04;-0.2;0.7;0.0;320.0;-23.22;23.88;22.38;59.47;-22.19;-6.65;9.0;1010.14;43.064;24.786316;120.99741;;97.1150131;;;65.353;;0 / 19;36005;2014-12-10 11:20:13:051
0.66;4.18;9.1;1.74;3.5;8.98;0.48;-0.22;-0.2;0.29;0.13;0.1;320.0;-23.04;22.38;24.3;63.37;-21.18;-7.36;9.0;1010.14;33.489;24.786316;120.99741;;97.1150131;;;65.353;;0 / 18;36505;2014-12-10 11:20:13:551
-0.05;4.88;8.14;0.48;4.85;8.5;-0.3;-0.07;-0.57;0.14;0.3;0.23;320.0;-23.64;25.8;21.96;59.6;-25.05;-7.64;9.0;1010.14;33.757;24.786316;120.99741;;97.1150131;;;65.353;;0 / 18;37005;2014-12-10 11:20:14:051
1.49;3.14;9.76;2.71;2.59;9.05;0.44;-0.23;-0.39;-0.58;-0.47;0.25;320.0;-22.38;30.35;23.58;50.69;-19.8;-13.1;9.0;1010.14;41.261;24.786316;120.99741;;97.1150131;;;65.353;;0 / 19;37504;2014-12-10 11:20:14:550
2.33;2.99;8.81;1.97;2.82;9.18;-0.32;0.11;-0.04;0.03;-0.16;-0.16;640.0;-22.68;32.52;20.93;44.8;-16.72;-12.11;9.0;1010.14;59.357;24.786316;120.99741;;97.1150131;;;65.353;;0 / 19;38005;2014-12-10 11:20:15:051
2.59;3.02;9.41;2.22;3.05;9.04;0.23;-0.27;-0.97;-0.14;-0.29;0.28;640.0;-22.26;32.7;23.34;45.88;-18.14;-13.8;9.0;1010.14;64.182;24.786316;120.99741;;97.1150131;;;65.353;;0 / 19;38504;2014-12-10 11:20:15:550
2.53;3.5;9.59;2.21;3.74;8.78;-0.32;-0.2;0.0;0.14;-0.28;-0.01;320.0;-22.43;31.92;22.02;48.18;-21.61;-13.84;9.0;1010.14;63.055;24.786316;120.99741;;97.1150131;;;65.353;;0 / 19;39004;2014-12-10 11:20:16:050
2.29;2.68;9.29;2.69;3.37;8.8;0.27;-0.57;0.46;0.2;0.18;-0.09;320.0;-22.68;32.04;23.7;50.03;-20.54;-16.32;9.0;1010.14;59.568;24.786316;120.99741;;97.1150131;;;65.353;;0 / 19;39504;2014-12-10 11:20:16:550
1.98;4.03;9.31;1.84;4.61;8.45;-0.89;1.39;0.36;0.06;0.2;-0.31;320.0;-22.2;31.43;21.48;52.58;-28.19;-14.55;9.0;1010.14;52.277;24.786316;120.99741;;97.1150131;;;65.353;;0 / 19;40005;2014-12-10 11:20:17:051
2.18;5.44;8.35;2.54;5.16;7.93;-0.55;-0.19;-0.6;0.42;-0.81;-0.46;320.0;-22.02;29.51;22.85;57.97;-31.79;-17.76;9.0;1010.14;65.544;24.786316;120.99741;;97.1150131;;;65.353;;0 / 19;40504;2014-12-10 11:20:17:550
1.78;7.46;6.59;3.25;7.09;5.93;-0.51;-0.41;-0.43;0.94;-0.81;-0.24;320.0;-21.54;30.3;21.35;62.91;-46.36;-28.73;9.0;1010.14;66.899;24.786316;120.99741;;97.1150131;;;65.353;;0 / 19;41004;2014-12-10 11:20:18:050
1.56;9.09;4.44;2.08;8.29;4.8;1.92;0.7;1.52;-0.18;0.39;0.33;320.0;-21.84;27.66;19.14;77.34;-63.97;-27.7;9.0;1010.14;44.623;24.786316;120.99741;;97.1150131;;;65.353;;0 / 19;41504;2014-12-10 11:20:18:550
1.47;6.31;6.85;2.98;6.78;6.41;-0.03;-0.71;-0.88;-0.37;0.41;0.03;320.0;-21.48;26.93;21.42;66.78;-44.74;-24.8;9.0;1010.14;55.995;24.786316;120.99741;;97.1150131;;;65.353;;0 / 19;42005;2014-12-10 11:20:19:051
2.57;6.33;7.81;2.75;6.94;6.35;0.8;-0.83;1.17;0.16;0.28;-0.01;320.0;-20.82;24.96;26.09;78.77;-45.99;-22.35;9.0;1010.14;60.369;24.786316;120.99741;;97.1150131;;;65.353;;0 / 19;42505;2014-12-10 11:20:19:551
-0.58;7.54;7.79;2.01;6.75;6.82;1.06;-0.19;-0.31;-0.28;-0.06;-0.77;320.0;-21.0;24.35;22.38;75.2;-43.51;-16.42;9.0;1010.13;34.853;24.786316;120.99741;;97.1150131;;;65.353;;0 / 19;43005;2014-12-10 11:20:20:051
1.29;6.36;7.11;1.75;6.6;7.03;0.05;-0.06;0.07;0.02;-0.63;0.1;320.0;-22.2;28.2;22.14;69.63;-42.33;-13.98;9.0;1010.13;52.482;24.786316;120.99741;;97.1150131;;;65.353;;0 / 19;43504;2014-12-10 11:20:20:550
2.29;6.88;6.73;2.54;6.94;6.44;0.29;0.1;0.37;0.56;-0.48;-0.18;320.0;-19.85;26.93;24.42;70.4;-41.77;-19.75;9.0;1010.13;63.403;24.786316;120.99741;;97.1150131;;;65.353;;0 / 19;44004;2014-12-10 11:20:21:050
2.7;7.68;5.33;3.03;7.64;5.34;-0.02;-0.14;-0.14;0.02;0.05;-0.03;320.0;-19.19;25.8;26.76;80.3;-51.38;-29.29;9.0;1010.14;60.304;24.786316;120.99741;;97.1150131;;;65.353;;0 / 19;44505;2014-12-10 11:20:21:551
2.62;7.65;5.67;2.84;7.62;5.46;0.11;0.05;0.16;-0.02;0.0;-0.01;320.0;-19.02;24.96;25.98;80.76;-51.09;-27.81;9.0;1010.13;56.463;24.786316;120.99741;;97.1150131;;;65.353;;0 / 19;45004;2014-12-10 11:20:22:050
2.64;7.7;5.69;2.79;7.59;5.53;0.07;0.03;0.06;-0.03;0.01;0.0;320.0;-19.56;24.6;26.09;80.78;-50.78;-26.77;9.0;1010.13;61.568;24.786316;120.99741;;97.1150131;;;65.353;;0 / 19;45504;2014-12-10 11:20:22:550
2.63;7.57;5.81;2.74;7.54;5.63;0.08;-0.01;0.0;-0.02;0.0;0.01;320.0;-19.26;25.08;26.58;82.74;-50.33;-25.99;9.0;1010.13;46.719;24.786316;120.99741;;97.1150131;;;65.353;;0 / 19;46006;2014-12-10 11:20:23:052
2.65;7.44;5.8;2.7;7.51;5.68;-0.04;0.03;-0.01;0.01;0.02;0.0;320.0;-19.26;24.0;25.56;82.56;-50.04;-25.51;9.0;1010.13;47.851;24.786316;120.99741;;97.1150131;;;65.353;;0 / 19;46505;2014-12-10 11:20:23:551
2.53;7.51;5.73;2.68;7.52;5.68;0.02;0.02;-0.03;-0.01;0.0;0.0;320.0;-18.95;24.66;25.68;81.37;-49.96;-25.26;9.0;1010.13;49.395;24.786316;120.99741;;97.1150131;;;65.353;;0 / 19;47005;2014-12-10 11:20:24:051
2.63;7.51;5.83;2.68;7.51;5.7;-0.06;0.01;0.0;0.0;0.01;-0.01;320.0;-19.14;25.62;26.22;80.21;-50.01;-25.18;9.0;1010.13;43.804;24.786316;120.99741;;97.1150131;;;65.353;;0 / 19;47505;2014-12-10 11:20:24:551
2.62;7.49;5.85;2.66;7.49;5.73;0.02;0.01;0.02;-0.02;0.0;0.01;320.0;-19.37;25.8;25.43;78.7;-49.85;-24.9;9.0;1010.12;34.483;24.786316;120.99741;;97.1150131;;;65.353;;0 / 19;48004;2014-12-10 11:20:25:050
3.09;7.35;5.75;2.75;7.32;5.91;0.57;0.1;-0.57;-0.45;0.32;-0.25;320.0;-19.26;25.43;26.4;80.16;-49.5;-26.4;9.0;1010.12;38.315;24.786316;120.99741;;97.1150131;;;65.353;;0 / 19;48505;2014-12-10 11:20:25:551
2.64;7.58;5.11;2.62;7.77;5.36;0.14;-0.09;-0.02;0.36;-0.19;-0.17;320.0;-18.95;25.08;27.0;82.89;-50.23;-25.62;9.0;1010.12;54.319;24.786316;120.99741;;97.1150131;;;65.353;;0 / 19;49005;2014-12-10 11:20:26:051
0.88;7.57;5.9;1.27;7.8;5.79;-0.27;0.19;-0.06;0.08;0.02;-0.13;320.0;-21.06;25.2;23.16;87.95;-53.11;-13.16;9.0;1010.11;48.037;24.786316;120.99741;;97.1150131;;;65.353;;0 / 19;49505;2014-12-10 11:20:26:551
-1.19;8.44;6.46;-0.04;7.74;6.01;0.19;-0.29;-0.06;-0.17;-0.27;0.06;320.0;-21.24;21.96;21.9;100.84;-52.17;0.38;9.0;1010.12;33.892;24.786316;120.99741;;97.1150131;;;65.353;;0 / 19;50004;2014-12-10 11:20:27:050
-0.99;7.25;6.3;-1.43;7.74;5.84;-1.02;1.13;0.55;0.05;0.24;-0.37;320.0;-21.35;20.58;17.03;104.08;-52.16;13.76;3.5;1010.12;46.938;24.786316;120.99741;;97.1150131;;;65.353;;0 / 19;50504;2014-12-10 11:20:27:550
-0.64;7.83;5.2;-0.42;7.95;5.71;-0.25;0.12;-0.39;-0.11;0.21;0.07;320.0;-21.0;21.48;19.02;101.15;-53.32;4.11;3.5;1010.11;67.48;24.786316;120.99741;;97.1150131;;;65.353;;0 / 19;51008;2014-12-10 11:20:28:054
-1.66;8.27;6.25;-1.24;7.76;5.85;-0.29;0.15;0.41;-0.04;-0.26;0.11;320.0;-21.24;21.3;17.1;100.39;-52.5;9.56;3.5;1010.12;55.084;24.786316;120.99741;;97.1150131;;;65.353;;0 / 16;51504;2014-12-10 11:20:28:550
-0.67;7.5;6.43;-0.92;7.61;6.11;-0.11;0.31;0.79;-0.12;0.59;0.09;320.0;-21.24;21.78;17.03;96.58;-51.22;9.75;3.5;1010.12;47.191;24.786316;120.99741;;97.1150131;;;65.353;;0 / 16;52005;2014-12-10 11:20:29:051
-1.62;7.38;6.18;-1.57;7.36;6.28;-0.1;-0.18;0.43;0.1;-0.43;-0.05;320.0;-20.93;22.32;18.18;98.55;-48.67;14.04;3.5;1010.12;48.194;24.786316;120.99741;;97.1150131;;;65.353;;0 / 16;52505;2014-12-10 11:20:29:551
-0.53;7.05;6.97;-0.46;7.07;6.77;-0.1;-0.06;-0.26;-0.04;-0.21;0.04;320.0;-21.18;23.51;19.14;83.71;-45.95;3.28;3.5;1010.11;36.694;24.786316;120.99741;;97.1150131;;;65.353;;0 / 16;53004;2014-12-10 11:20:30:050
-0.49;7.16;6.45;-0.88;7.27;6.51;0.03;0.08;-0.4;0.04;0.01;0.0;320.0;-22.68;23.22;18.29;88.87;-47.03;7.57;3.5;1010.11;47.578;24.786316;120.99741;;97.1150131;;;65.353;;0 / 16;53505;2014-12-10 11:20:30:551
-0.49;7.32;6.48;-0.62;7.32;6.48;-0.05;0.1;0.0;0.01;-0.11;0.01;320.0;-22.02;23.82;17.94;87.73;-48.31;6.34;3.5;1010.11;39.787;24.786316;120.99741;;97.1150131;;;65.353;;0 / 16;54004;2014-12-10 11:20:31:050
-0.42;7.37;6.49;-0.54;7.35;6.46;-0.01;0.06;0.08;0.03;0.05;0.0;320.0;-21.12;23.51;18.48;86.73;-48.59;4.78;3.5;1010.11;34.787;24.786316;120.99741;;97.1150131;;;65.353;;0 / 16;54505;2014-12-10 11:20:31:551
-0.33;7.42;6.49;-0.5;7.37;6.44;-0.05;0.03;-0.03;0.02;-0.04;0.01;320.0;-21.78;22.38;18.42;90.77;-48.77;4.44;3.5;1010.11;34.527;24.786316;120.99741;;97.1150131;;;65.353;;0 / 16;55004;2014-12-10 11:20:32:050
-0.42;7.44;6.47;-0.49;7.39;6.42;0.03;0.0;0.05;0.0;0.0;0.0;320.0;-22.26;24.0;18.24;87.41;-48.93;4.54;3.5;1010.11;33.077;24.786316;120.99741;;97.1150131;;;65.353;;0 / 16;55504;2014-12-10 11:20:32:550
-0.42;7.47;6.43;-0.48;7.39;6.42;0.03;0.0;0.0;0.02;0.05;0.0;320.0;-21.35;23.1;18.95;91.05;-48.94;4.28;3.5;1010.12;34.527;24.786316;120.99741;;97.1150131;;;65.353;;0 / 16;56005;2014-12-10 11:20:33:051
-0.45;7.45;6.47;-0.46;7.39;6.42;0.0;-0.03;0.01;0.0;0.0;0.0;320.0;-21.48;22.98;18.84;91.06;-48.99;4.19;3.5;1010.11;33.714;24.786316;120.99741;;97.1150131;;;65.353;;0 / 16;56505;2014-12-10 11:20:33:551
-0.41;7.45;6.53;-0.43;7.39;6.42;0.0;0.0;-0.02;-0.02;-0.02;0.02;320.0;-21.42;23.46;18.53;90.74;-48.95;3.83;3.5;1010.11;33.147;24.786316;120.99741;;97.1150131;;;65.353;;0 / 16;57005;2014-12-10 11:20:34:051
-0.24;7.29;6.56;-0.28;7.32;6.51;0.02;-0.08;-0.02;-0.01;-0.02;0.0;320.0;-20.76;23.93;18.53;86.86;-48.33;2.46;3.5;1010.11;34.598;24.786316;120.99741;;97.1150131;;;65.353;;0 / 16;57504;2014-12-10 11:20:34:550
-0.26;7.39;6.72;-0.28;7.32;6.51;0.0;-0.01;-0.05;0.01;0.04;0.0;320.0;-21.42;23.93;18.71;86.68;-48.24;2.37;3.5;1010.11;33.901;24.786316;120.99741;;97.1150131;;;65.353;;0 / 16;58005;2014-12-10 11:20:35:051
-0.33;7.43;6.48;-0.35;7.36;6.46;-0.01;0.0;0.01;0.0;-0.03;0.0;320.0;-21.12;22.68;18.95;89.64;-48.69;2.92;3.5;1010.11;34.795;24.786316;120.99741;;97.1150131;;;65.353;;0 / 16;58504;2014-12-10 11:20:35:550
-0.41;7.51;6.62;-0.39;7.38;6.44;0.01;-0.07;-0.03;-0.01;0.03;0.0;320.0;-22.38;24.3;18.48;86.28;-48.76;3.28;3.5;1010.11;34.158;24.786316;120.99741;;97.1150131;;;65.353;;0 / 16;59004;2014-12-10 11:20:36:050
-0.41;7.39;6.49;-0.4;7.41;6.4;0.01;-0.03;-0.03;0.0;-0.02;0.0;320.0;-21.12;23.58;18.11;86.74;-49.13;3.58;3.5;1010.11;32.892;24.786316;120.99741;;97.1150131;;;65.353;;0 / 16;59505;2014-12-10 11:20:36:551
-0.43;7.51;6.47;-0.43;7.41;6.39;-0.02;0.05;0.04;0.0;0.0;0.0;320.0;-21.06;23.22;18.9;91.08;-49.16;3.85;3.5;1010.11;32.714;24.786316;120.99741;;97.1150131;;;65.353;;0 / 16;60005;2014-12-10 11:20:37:051
-0.43;7.44;6.42;-0.43;7.41;6.4;-0.03;0.0;-0.12;-0.01;0.01;0.0;320.0;-21.24;24.12;17.82;86.91;-49.12;3.84;3.5;1010.11;33.047;24.786316;120.99741;;97.1150131;;;65.353;;0 / 16;60505;2014-12-10 11:20:37:551
-0.46;7.49;6.56;-0.42;7.41;6.4;0.0;-0.03;0.02;0.0;-0.03;0.01;320.0;-21.48;23.4;18.53;90.94;-49.12;3.75;3.5;1010.11;33.309;24.786316;120.99741;;97.1150131;;;65.353;;0 / 16;61005;2014-12-10 11:20:38:051
-0.42;7.45;6.44;-0.4;7.41;6.4;0.0;0.0;0.03;0.0;-0.05;0.0;320.0;-21.54;22.98;18.77;90.96;-49.12;3.67;3.5;1010.12;33.136;24.786316;120.99741;;97.1150131;;;65.353;;0 / 16;61505;2014-12-10 11:20:38:551
-0.37;7.44;6.44;-0.39;7.41;6.41;-0.01;-0.04;0.06;0.0;0.03;0.0;320.0;-21.6;24.18;18.24;86.9;-49.09;3.48;3.5;1010.11;32.759;24.786316;120.99741;;97.1150131;;;65.353;;0 / 16;62004;2014-12-10 11:20:39:050
-0.38;7.38;6.54;-0.39;7.4;6.41;0.0;-0.02;0.0;0.0;-0.02;0.0;320.0;-21.35;23.51;18.66;88.72;-49.05;3.48;3.5;1010.11;34.199;24.786316;120.99741;;97.1150131;;;65.353;;0 / 16;62505;2014-12-10 11:20:39:551
-0.4;7.37;6.49;-0.39;7.4;6.42;0.0;-0.01;0.09;0.0;-0.02;0.0;320.0;-21.12;23.46;18.35;88.44;-49.05;3.48;3.5;1010.1;32.378;24.786316;120.99741;;97.1150131;;;65.353;;0 / 16;63005;2014-12-10 11:20:40:051
-0.35;7.37;6.49;-0.39;7.39;6.42;-0.02;0.0;-0.01;0.0;0.0;0.0;320.0;-21.24;23.7;18.24;86.42;-48.97;3.48;3.5;1010.1;33.239;24.786316;120.99741;;97.1150131;;;65.353;;0 / 16;63505;2014-12-10 11:20:40:551
-0.34;7.41;6.48;-0.39;7.39;6.43;0.0;0.0;0.06;0.0;0.0;-0.01;320.0;-21.12;23.28;19.02;90.41;-48.92;3.47;3.5;1010.11;32.911;24.786316;120.99741;;97.1150131;;;65.353;;0 / 16;64006;2014-12-10 11:20:41:052
-0.35;7.4;6.54;-0.38;7.38;6.43;0.0;-0.02;0.03;-0.01;-0.01;0.0;320.0;-21.66;23.64;19.68;90.66;-48.89;3.38;3.5;1010.11;32.186;24.786316;120.99741;;97.1150131;;;65.353;;0 / 16;64504;2014-12-10 11:20:41:550
-0.31;7.39;6.51;-0.35;7.38;6.44;-0.04;0.0;0.02;0.0;0.02;0.0;320.0;-21.12;23.34;18.11;87.93;-48.85;3.2;3.5;1010.1;32.781;24.786316;120.99741;;97.1150131;;;65.353;;0 / 16;65005;2014-12-10 11:20:42:051
-0.33;7.38;6.58;-0.34;7.38;6.44;0.0;0.0;-0.05;0.0;-0.05;0.01;320.0;-21.35;24.24;18.71;88.07;-48.85;3.02;3.5;1010.1;45.265;24.786316;120.99741;;97.1150131;;;65.353;;0 / 16;65504;2014-12-10 11:20:42:550
-0.33;7.34;6.6;-0.34;7.37;6.45;-0.01;0.0;-0.01;0.0;-0.04;0.01;320.0;-21.35;23.7;18.35;85.88;-48.81;3.02;3.5;1010.1;41.223;24.786316;120.99741;;97.1150131;;;65.353;;0 / 16;66004;2014-12-10 11:20:43:050
-0.28;7.35;6.55;-0.33;7.37;6.45;0.02;0.03;0.01;0.01;-0.03;0.0;320.0;-22.08;23.51;18.53;88.09;-48.77;2.93;3.5;1010.1;44.121;24.786316;120.99741;;97.1150131;;;65.353;;0 / 16;66505;2014-12-10 11:20:43:551
-0.33;7.37;6.59;-0.34;7.36;6.46;0.02;0.01;0.03;0.0;0.02;0.0;320.0;-22.14;23.64;18.29;85.99;-48.69;3.01;3.5;1010.11;41.008;24.786316;120.99741;;97.1150131;;;65.353;;0 / 16;67004;2014-12-10 11:20:44:050
-0.35;7.36;6.49;-0.35;7.35;6.47;0.0;-0.02;0.05;0.0;0.02;0.0;320.0;-21.72;23.22;18.84;89.76;-48.6;3.1;3.5;1010.1;43.132;24.786316;120.99741;;97.1150131;;;65.353;;0 / 16;67505;2014-12-10 11:20:44:551
-0.36;7.33;6.49;-0.37;7.35;6.47;0.0;0.02;0.0;0.0;-0.01;0.0;320.0;-21.66;23.58;18.9;88.07;-48.6;3.27;3.5;1010.11;35.919;24.786316;120.99741;;97.1150131;;;65.353;;0 / 16;68004;2014-12-10 11:20:45:050
0.16;7.17;7.1;-0.12;7.2;6.65;-0.01;-0.02;-0.02;-0.03;-0.07;0.04;320.0;-21.54;23.76;19.85;89.81;-48.52;3.0;3.5;1010.11;33.935;24.786316;120.99741;;97.1150131;;;65.353;;0 / 16;68504;2014-12-10 11:20:45:550
0.95;5.9;7.67;0.83;5.72;7.92;-0.39;1.97;0.86;-0.78;-0.51;0.16;320.0;-22.2;25.8;23.04;69.43;-35.69;-5.98;3.5;1010.1;32.678;24.786316;120.99741;;97.1150131;;;65.353;;0 / 16;69006;2014-12-10 11:20:46:052
2.39;3.78;4.18;2.08;4.83;8.27;-3.0;0.1;0.32;0.03;-0.12;-1.29;320.0;-18.35;23.76;18.9;58.97;-30.75;-2.72;3.5;1010.1;33.159;24.786316;120.99741;;97.1150131;;;65.353;;0 / 16;69504;2014-12-10 11:20:46:550
-1.56;2.2;8.28;-2.65;2.17;9.18;1.49;0.25;-1.51;-0.42;0.25;0.2;640.0;0.12;18.18;7.62;352.03;-12.8;16.1;3.5;1010.1;34.884;24.786854;120.99584;;293.56188069555793;;;2854.8389;;0 / 16;70005;2014-12-10 11:20:47:051
-0.46;0.16;10.19;-2.41;1.44;9.39;0.41;-0.48;3.09;0.14;-4.6;-0.62;320.0;1.14;29.93;-7.91;1.89;-8.45;14.39;3.5;1010.1;40.589;24.786854;120.99584;;293.56188069555793;;;2854.8389;;0 / 16;70505;2014-12-10 11:20:47:551
0.19;0.04;9.54;-0.24;0.21;9.8;-0.15;0.19;-0.17;0.0;-0.23;0.0;320.0;-0.29;32.21;-10.92;0.48;-1.23;1.4;3.5;1010.1;38.372;24.786854;120.99584;;293.56188069555793;;;2854.8389;;0 / 16;71004;2014-12-10 11:20:48:050
0.08;-0.05;9.67;-0.05;0.09;9.8;0.0;0.01;0.02;0.0;-0.03;0.01;320.0;-3.41;33.12;-12.84;5.29;-0.53;0.29;3.5;1010.1;41.763;24.786854;120.99584;;293.56188069555793;;;2854.8389;;0 / 16;71504;2014-12-10 11:20:48:550
0.02;0.0;9.7;-0.11;0.07;9.8;-0.01;0.01;-0.05;0.0;0.04;0.0;320.0;-3.95;34.5;-13.38;6.74;-0.41;0.64;3.5;1010.11;48.094;24.786854;120.99584;;293.56188069555793;;;2854.8389;;0 / 16;72004;2014-12-10 11:20:49:050
-0.13;0.01;9.69;-0.22;0.08;9.8;0.2;0.07;-0.13;0.0;0.0;0.0;320.0;-4.08;34.91;-13.5;6.74;-0.41;0.64;3.5;1010.11;38.571;24.786854;120.99584;;293.56188069555793;;;2854.8389;;0 / 16;72504;2014-12-10 11:20:49:550
-0.13;-0.04;9.72;-0.2;0.07;9.8;-0.01;-0.04;0.0;0.0;0.0;0.0;320.0;-4.08;33.41;-14.64;7.46;-0.47;1.29;3.5;1010.1;34.815;24.786854;120.99584;;293.56188069555793;;;2854.8389;;0 / 16;73004;2014-12-10 11:20:50:050
-0.14;0.0;9.71;-0.17;0.05;9.8;-0.01;0.0;0.0;0.0;0.0;0.0;320.0;-5.16;33.3;-13.44;9.0;-0.35;1.05;3.5;-0.01;38.737;24.786854;120.99584;;293.56188069555793;;;2854.8389;;0 / 16;73504;2014-12-10 11:20:50:550
-0.19;-0.05;9.7;-0.17;0.04;9.8;-0.05;-0.04;-0.01;0.0;0.0;0.0;320.0;-4.31;34.86;-12.9;6.87;-0.29;0.99;3.5;-0.01;34.524;24.786854;120.99584;;293.56188069555793;;;2854.8389;;0 / 16;74004;2014-12-10 11:20:51:050
-0.21;-0.19;9.6;-0.17;0.03;9.8;-0.03;-0.14;-0.08;0.0;-0.02;0.0;320.0;-4.5;34.55;-14.1;6.9;-0.23;0.99;3.5;-0.01;36.455;24.786854;120.99584;;293.56188069555793;;;2854.8389;;0 / 16;74504;2014-12-10 11:20:51:550
-0.37;-0.21;9.63;-0.17;0.04;9.8;-0.19;-0.19;-0.07;0.0;0.03;0.0;320.0;-3.12;34.55;-13.38;5.26;-0.18;0.99;3.5;-0.01;38.749;24.786854;120.99584;;293.56188069555793;;;2854.8389;;0 / 16;75005;2014-12-10 11:20:52:051
-0.17;-0.02;9.69;-0.14;0.03;9.8;-0.03;-0.02;-0.01;0.0;0.0;0.0;320.0;-4.38;34.32;-13.02;7.01;-0.18;0.82;3.5;-0.01;40.057;24.786854;120.99584;;293.56188069555793;;;2854.8389;;0 / 16;75505;2014-12-10 11:20:52:551
-0.11;0.04;9.68;-0.14;0.03;9.8;0.01;0.03;-0.01;0.0;0.0;0.0;320.0;-4.73;34.38;-13.92;8.68;-0.18;0.82;3.5;-0.01;35.11;24.786854;120.99584;;293.56188069555793;;;2854.8389;;0 / 16;76005;2014-12-10 11:20:53:051
-0.09;0.02;9.73;-0.14;0.03;9.8;0.04;0.01;0.01;0.0;-0.01;0.0;320.0;-4.02;33.36;-13.62;7.24;-0.18;0.82;3.5;-0.01;34.105;24.786854;120.99584;;293.56188069555793;;;2854.8389;;0 / 16;76505;2014-12-10 11:20:53:551
-0.08;0.03;9.69;-0.14;0.02;9.8;0.03;0.02;-0.01;0.0;0.0;0.0;320.0;-4.67;35.16;-14.21;8.44;-0.18;0.82;3.5;-0.01;36.0;24.786854;120.99584;;293.56188069555793;;;2854.8389;;0 / 16;77004;2014-12-10 11:20:54:050
-0.11;0.0;9.7;-0.14;0.02;9.8;0.01;0.0;0.0;0.0;0.0;0.0;320.0;-4.19;35.28;-13.56;6.84;-0.12;0.82;3.5;-0.01;36.945;24.786854;120.99584;;293.56188069555793;;;2854.8389;;0 / 16;77505;2014-12-10 11:20:54:551
-0.09;0.01;9.72;-0.14;0.02;9.8;0.03;0.01;0.0;0.0;0.0;0.0;320.0;-5.46;33.05;-13.62;8.95;-0.12;0.82;3.5;-0.01;34.519;24.786854;120.99584;;293.56188069555793;;;2854.8389;;0 / 16;78004;2014-12-10 11:20:55:050
-0.14;0.01;9.72;-0.13;0.02;9.8;-0.01;0.01;0.0;0.0;0.0;0.0;320.0;-4.67;34.86;-13.67;8.44;-0.12;0.82;3.5;-0.01;34.872;24.786854;120.99584;;293.56188069555793;;;2854.8389;;0 / 16;78504;2014-12-10 11:20:55:550
-0.13;0.0;9.71;-0.13;0.02;9.8;0.0;0.0;0.0;0.0;0.0;0.0;320.0;-5.1;33.89;-14.46;8.66;-0.12;0.76;3.5;-0.01;34.948;24.786854;120.99584;;293.56188069555793;;;2854.8389;;0 / 16;79004;2014-12-10 11:20:56:050
-0.11;0.0;9.7;-0.13;0.01;9.8;0.02;0.0;0.0;0.0;0.0;0.0;320.0;-5.04;35.16;-14.28;8.42;-0.06;0.76;3.5;-0.01;37.414;24.786854;120.99584;;293.56188069555793;;;2854.8389;;0 / 16;79505;2014-12-10 11:20:56:551
-0.13;0.0;9.71;-0.13;0.01;9.8;0.0;0.0;0.0;0.0;0.0;0.0;320.0;-3.95;34.8;-13.25;6.8;-0.06;0.76;3.5;-0.01;63.857;24.786854;120.99584;;293.56188069555793;;;2854.8389;;0 / 16;80004;2014-12-10 11:20:57:050
-0.18;-0.01;9.75;-0.13;0.01;9.8;-0.04;-0.02;-0.1;0.0;0.02;0.0;320.0;-5.46;34.02;-15.0;8.69;-0.06;0.76;3.5;-0.01;33.821;24.786854;120.99584;;293.56188069555793;;;2854.8389;;0 / 16;80505;2014-12-10 11:20:57:551
0.88;0.43;9.14;-0.14;0.02;9.8;0.9;0.4;-0.28;0.03;-0.12;0.0;320.0;-3.9;34.55;-12.84;6.8;-0.06;0.76;3.5;-0.01;40.313;24.786854;120.99584;;293.56188069555793;;;2854.8389;;0 / 16;81004;2014-12-10 11:20:58:050
-0.27;-0.14;9.67;-0.17;0.01;9.8;-0.11;-0.12;-0.03;0.0;0.03;0.0;320.0;-4.56;33.59;-13.14;8.71;0.0;0.94;3.5;-0.01;32.96;24.786854;120.99584;;293.56188069555793;;;2854.8389;;0 / 16;81504;2014-12-10 11:20:58:550
-0.19;-0.07;9.7;-0.17;0.0;9.8;-0.07;-0.08;-0.01;0.0;0.01;0.0;320.0;-4.98;34.68;-14.64;8.54;-0.06;0.99;3.5;-0.01;33.396;24.786854;120.99584;;293.56188069555793;;;2854.8389;;0 / 16;82004;2014-12-10 11:20:59:050
-0.11;0.02;9.7;-0.16;0.0;9.8;0.03;0.02;0.0;0.0;0.0;0.0;320.0;-4.62;33.84;-14.04;8.76;0.0;0.99;3.5;-0.01;33.016;24.786854;120.99584;;293.56188069555793;;;2854.8389;;0 / 16;82505;2014-12-10 11:20:59:551
-0.14;0.0;9.7;-0.16;0.0;9.8;0.0;0.01;0.0;0.0;0.0;0.0;320.0;-4.25;35.46;-14.64;6.91;0.0;0.94;3.5;-0.01;33.154;24.786854;120.99584;;293.56188069555793;;;2854.8389;;0 / 16;83005;2014-12-10 11:21:00:051
-0.07;0.2;9.68;-0.16;0.01;9.8;0.05;0.17;-0.01;0.0;0.02;0.0;320.0;-4.79;34.68;-14.34;8.5;0.0;0.94;3.5;-0.01;35.193;24.786854;120.99584;;293.56188069555793;;;2854.8389;;0 / 16;83505;2014-12-10 11:21:00:551
-0.06;0.07;9.73;-0.15;0.01;9.8;0.08;0.07;0.03;0.0;-0.02;0.01;320.0;-4.19;34.07;-13.32;7.06;-0.06;0.94;3.5;-0.01;33.738;24.786854;120.99584;;293.56188069555793;;;2854.8389;;0 / 16;84005;2014-12-10 11:21:01:051
-0.15;-0.01;9.71;-0.15;0.01;9.8;-0.02;-0.01;0.0;0.0;-0.01;0.0;320.0;-4.25;34.07;-13.32;7.04;-0.06;0.88;3.5;-0.01;33.528;24.786854;120.99584;;293.56188069555793;;;2854.8389;;0 / 16;84505;2014-12-10 11:21:01:551
-0.15;-0.01;9.7;-0.15;0.01;9.8;-0.01;-0.02;0.0;0.0;0.01;0.0;320.0;-5.04;35.21;-14.34;8.47;-0.06;0.88;3.5;-0.01;33.273;24.786392;120.99741;;293.56188069555793;;;164.51613;;0 / 16;85005;2014-12-10 11:21:02:051
-0.14;0.01;9.71;-0.15;0.01;9.8;-0.01;0.0;0.0;0.0;0.0;0.0;320.0;-4.73;33.3;-14.16;8.97;-0.06;0.88;3.5;-0.01;33.036;24.786392;120.99741;;293.56188069555793;;;164.51613;;0 / 16;85505;2014-12-10 11:21:02:551
-0.13;0.02;9.71;-0.15;0.01;9.8;0.0;0.02;0.0;0.0;0.0;0.0;320.0;-4.02;35.75;-14.64;6.7;-0.06;0.88;3.5;-0.01;33.596;24.786392;120.99741;;293.56188069555793;;;164.51613;;0 / 16;86005;2014-12-10 11:21:03:051
-0.13;0.0;9.75;-0.15;0.01;9.8;0.0;0.0;0.03;0.0;-0.01;0.0;320.0;-3.48;36.0;-13.56;5.1;-0.06;0.88;3.5;-0.01;33.257;24.786392;120.99741;;293.56188069555793;;;164.51613;;0 / 16;86505;2014-12-10 11:21:03:551
-0.13;0.01;9.71;-0.14;0.01;9.8;0.0;0.01;0.0;0.0;0.0;0.0;320.0;-4.19;33.84;-14.1;7.06;-0.06;0.88;3.5;-0.01;33.711;24.786392;120.99741;;293.56188069555793;;;164.51613;;0 / 16;87008;2014-12-10 11:21:04:054
-0.14;0.0;9.69;-0.14;0.01;9.8;0.0;0.0;-0.01;0.0;0.01;0.0;320.0;-3.78;35.04;-13.2;6.82;-0.06;0.82;3.5;-0.01;33.546;24.786392;120.99741;;293.56188069555793;;;164.51613;;0 / 16;87504;2014-12-10 11:21:04:550
-0.15;0.01;9.7;-0.14;0.01;9.8;-0.01;0.0;0.0;0.0;0.0;0.0;320.0;-4.56;34.62;-14.64;8.47;-0.06;0.82;3.5;-0.01;32.905;24.786392;120.99741;;293.56188069555793;;;164.51613;;0 / 16;88004;2014-12-10 11:21:05:050
-0.13;0.0;9.72;-0.14;0.0;9.8;0.0;0.0;0.01;0.0;0.0;0.0;320.0;-4.31;34.2;-13.98;7.04;0.0;0.82;3.5;-0.01;33.226;24.786392;120.99741;;293.56188069555793;;;164.51613;;0 / 16;88504;2014-12-10 11:21:05:550
-0.12;0.0;9.7;-0.14;0.0;9.8;0.0;0.0;0.0;0.0;0.0;0.0;320.0;-4.73;33.0;-13.14;8.93;0.0;0.82;3.5;-0.01;32.703;24.786392;120.99741;;293.56188069555793;;;164.51613;;0 / 16;89005;2014-12-10 11:21:06:051
-0.12;0.0;9.73;-0.14;0.0;9.8;0.0;0.0;0.02;0.0;0.0;0.0;320.0;-4.92;35.21;-14.04;8.45;0.0;0.82;3.5;-0.01;33.204;24.786392;120.99741;;293.56188069555793;;;164.51613;;0 / 16;89505;2014-12-10 11:21:06:551
-0.1;0.0;9.7;-0.14;0.0;9.8;0.0;0.0;-0.01;0.0;-0.01;0.0;320.0;-3.84;33.54;-12.84;7.02;0.0;0.82;3.5;-0.01;33.311;24.786392;120.99741;;293.56188069555793;;;164.51613;;0 / 16;90004;2014-12-10 11:21:07:050
-0.13;0.0;9.7;-0.14;0.0;9.8;0.0;0.0;0.0;0.0;0.0;0.0;320.0;-3.95;34.68;-13.67;6.84;0.0;0.82;3.5;-0.01;32.708;24.786392;120.99741;;293.56188069555793;;;164.51613;;0 / 16;90504;2014-12-10 11:21:07:550
-0.14;-0.02;9.73;-0.14;0.0;9.8;0.0;-0.02;0.01;0.0;0.0;0.0;320.0;-4.25;33.96;-14.16;7.04;0.0;0.82;3.5;-0.01;33.147;24.786392;120.99741;;293.56188069555793;;;164.51613;;0 / 16;91004;2014-12-10 11:21:08:050
-0.13;0.0;9.71;-0.14;0.0;9.8;0.0;0.0;0.0;0.0;0.0;0.0;320.0;-4.5;33.59;-13.5;7.02;0.0;0.82;3.5;-0.01;33.055;24.786392;120.99741;;293.56188069555793;;;164.51613;;0 / 16;91504;2014-12-10 11:21:08:550
-0.13;0.0;9.68;-0.14;0.0;9.8;0.0;0.0;-0.03;0.0;0.0;0.0;320.0;-3.78;33.96;-13.92;7.04;0.0;0.82;3.5;-0.01;33.424;24.786392;120.99741;;293.56188069555793;;;164.51613;;0 / 16;92004;2014-12-10 11:21:09:050
-0.11;0.01;9.71;-0.14;0.0;9.8;0.01;0.01;0.0;0.0;0.0;0.0;320.0;-4.31;33.18;-13.98;7.25;0.0;0.82;3.5;-0.01;33.347;24.786392;120.99741;;293.56188069555793;;;164.51613;;0 / 16;92504;2014-12-10 11:21:09:550
-0.11;0.0;9.7;-0.14;0.0;9.8;0.02;0.0;0.0;0.0;0.0;0.0;320.0;-4.73;34.07;-14.21;8.69;0.0;0.82;3.5;-0.01;32.979;24.786392;120.99741;;293.56188069555793;;;164.51613;;0 / 16;93004;2014-12-10 11:21:10:050
-0.14;0.01;9.72;-0.14;0.0;9.8;-0.01;0.0;0.01;0.0;0.0;0.0;320.0;-3.95;34.25;-13.92;7.04;0.0;0.82;3.5;-0.01;33.349;24.786392;120.99741;;293.56188069555793;;;164.51613;;0 / 15;93505;2014-12-10 11:21:10:551
-0.15;0.0;9.69;-0.14;0.0;9.8;-0.01;0.0;-0.01;0.0;0.0;0.0;320.0;-5.22;34.5;-15.24;8.47;0.0;0.82;3.5;-0.01;33.203;24.786392;120.99741;;293.56188069555793;;;164.51613;;0 / 15;94005;2014-12-10 11:21:11:051
-0.14;0.02;9.7;-0.14;0.0;9.8;-0.01;0.02;0.0;0.0;0.0;0.0;320.0;-4.08;34.43;-13.2;7.02;0.0;0.82;3.5;-0.01;33.533;24.786392;120.99741;;293.56188069555793;;;164.51613;;0 / 16;94505;2014-12-10 11:21:11:551
-0.14;-0.01;9.71;-0.14;0.0;9.8;0.0;-0.01;0.0;0.0;0.0;0.0;320.0;-4.56;33.71;-13.56;8.69;0.0;0.82;3.5;-0.01;33.442;24.786392;120.99741;;293.56188069555793;;;164.51613;;0 / 16;95005;2014-12-10 11:21:12:051
-0.14;0.0;9.71;-0.14;0.0;9.8;0.0;0.0;0.0;0.0;0.0;0.0;320.0;-4.38;34.43;-14.46;7.04;0.0;0.82;3.5;-0.01;33.754;24.786392;120.99741;;293.56188069555793;;;164.51613;;0 / 16;95505;2014-12-10 11:21:12:551
-0.13;0.0;9.72;-0.14;0.0;9.8;0.0;0.0;0.0;0.0;0.0;0.0;320.0;-4.38;33.41;-12.9;7.23;0.0;0.82;3.5;-0.01;33.117;24.786392;120.99741;;293.56188069555793;;;164.51613;;0 / 16;96006;2014-12-10 11:21:13:052
-0.15;0.0;9.72;-0.14;0.0;9.8;-0.01;0.0;0.01;0.0;0.0;0.0;320.0;-4.56;35.21;-14.58;8.47;0.0;0.82;3.5;-0.01;33.326;24.786392;120.99741;;293.56188069555793;;;164.51613;;0 / 16;96505;2014-12-10 11:21:13:551
-0.13;-0.02;9.74;-0.13;0.0;9.8;0.0;-0.02;0.02;0.0;0.0;0.0;320.0;-4.98;35.04;-14.46;8.45;0.0;0.82;3.5;-0.01;32.946;24.786392;120.99741;;293.56188069555793;;;164.51613;;0 / 16;97005;2014-12-10 11:21:14:051
-0.14;0.01;9.7;-0.13;0.0;9.8;0.0;0.0;0.0;0.0;0.0;0.0;320.0;-5.16;34.14;-13.02;8.65;0.0;0.76;3.5;-0.01;33.425;24.786392;120.99741;;293.56188069555793;;;164.51613;;0 / 16;97505;2014-12-10 11:21:14:551
-0.14;0.0;9.72;-0.13;0.0;9.8;0.02;0.01;0.0;0.0;0.0;0.0;320.0;-4.79;35.04;-15.12;8.45;0.0;0.76;3.5;-0.01;33.572;24.786392;120.99741;;293.56188069555793;;;164.51613;;0 / 16;98005;2014-12-10 11:21:15:051
-0.13;0.01;9.7;-0.13;0.0;9.8;0.0;0.01;-0.01;0.0;0.01;0.0;320.0;-4.62;33.84;-14.28;8.67;0.0;0.76;3.5;-0.01;33.372;24.786392;120.99741;;293.56188069555793;;;164.51613;;0 / 16;98505;2014-12-10 11:21:15:551
-0.15;0.0;9.71;-0.13;0.0;9.8;0.01;0.0;0.0;0.0;0.0;0.0;320.0;-4.79;34.02;-14.16;8.67;0.0;0.76;3.5;-0.01;33.229;24.786392;120.99741;;293.56188069555793;;;164.51613;;0 / 16;99004;2014-12-10 11:21:16:050
-0.15;0.0;9.7;-0.13;0.0;9.8;0.0;0.0;0.0;0.0;0.0;0.0;320.0;-3.9;34.68;-14.52;6.84;0.0;0.76;3.5;-0.01;32.883;24.786392;120.99741;;293.56188069555793;;;164.51613;;0 / 16;99505;2014-12-10 11:21:16:551
-0.13;-0.01;9.72;-0.13;0.0;9.8;0.0;-0.01;0.0;0.0;0.0;0.0;320.0;-4.92;35.57;-14.88;8.22;0.0;0.76;3.5;-0.01;33.167;24.786392;120.99741;;293.56188069555793;;;164.51613;;0 / 16;100005;2014-12-10 11:21:17:051
-0.13;0.0;9.72;-0.13;0.0;9.8;0.0;0.0;0.0;0.0;0.0;0.0;320.0;-4.62;34.25;-13.62;8.67;0.0;0.76;3.5;-0.01;33.196;24.786392;120.99741;;293.56188069555793;;;164.51613;;0 / 16;100504;2014-12-10 11:21:17:550
-0.13;0.0;9.7;-0.13;0.0;9.8;0.02;0.01;-0.01;0.0;-0.01;0.0;320.0;-3.66;33.66;-13.79;7.02;0.0;0.76;3.5;-0.01;32.984;24.786392;120.99741;;293.56188069555793;;;164.51613;;0 / 16;101004;2014-12-10 11:21:18:050
-0.12;0.01;9.72;-0.13;0.0;9.8;0.01;0.01;0.01;0.0;-0.01;0.0;320.0;-4.79;35.52;-14.4;8.2;0.0;0.76;3.5;-0.01;32.96;24.786392;120.99741;;293.56188069555793;;;164.51613;;0 / 16;101504;2014-12-10 11:21:18:550
-0.07;0.0;9.74;-0.13;0.0;9.8;0.06;0.0;0.01;0.0;-0.01;0.0;320.0;-4.44;33.05;-13.74;7.23;0.0;0.76;3.5;-0.01;40.367;24.786392;120.99741;;293.56188069555793;;;164.51613;;0 / 16;102004;2014-12-10 11:21:19:050
0.27;0.24;9.33;-0.13;0.0;9.8;0.49;0.29;-0.26;0.02;-0.04;0.0;320.0;-5.04;34.91;-14.28;8.43;0.0;0.76;3.5;-0.01;34.732;24.786392;120.99741;;293.56188069555793;;;164.51613;;0 / 16;102504;2014-12-10 11:21:19:550
-0.27;-0.09;9.65;-0.14;0.0;9.8;-0.12;-0.08;-0.06;0.0;0.02;0.0;320.0;-4.14;34.55;-13.38;6.84;0.0;0.88;3.5;-0.01;32.851;24.786392;120.99741;;293.56188069555793;;;164.51613;;0 / 16;103004;2014-12-10 11:21:20:050
-0.3;-0.19;9.7;-0.13;0.0;9.8;-0.15;-0.18;0.0;0.0;0.02;0.0;320.0;-4.73;34.62;-14.52;8.47;0.0;0.82;3.5;-0.01;32.474;24.786392;120.99741;;293.56188069555793;;;164.51613;;0 / 16;103504;2014-12-10 11:21:20:550
-0.04;0.14;9.73;-0.12;0.0;9.8;0.06;0.11;0.01;0.0;0.0;0.0;320.0;-3.12;35.16;-13.08;5.18;0.0;0.76;3.5;-0.01;32.919;24.786392;120.99741;;293.56188069555793;;;164.51613;;0 / 16;104005;2014-12-10 11:21:21:051
-0.14;0.01;9.77;-0.12;0.0;9.8;0.0;0.01;0.05;0.0;0.0;0.0;320.0;-5.1;34.55;-13.5;8.38;0.0;0.7;3.5;-0.01;32.996;24.786392;120.99741;;293.56188069555793;;;164.51613;;0 / 16;104505;2014-12-10 11:21:21:551
-0.12;0.01;9.7;-0.12;0.0;9.8;0.01;0.01;0.0;0.0;0.0;0.0;320.0;-4.56;33.12;-14.52;8.93;0.0;0.7;3.5;-0.01;33.018;24.786392;120.99741;;293.56188069555793;;;164.51613;;0 / 16;105005;2014-12-10 11:21:22:051
-0.14;-0.01;9.71;-0.13;0.0;9.8;0.0;-0.01;0.0;0.0;0.0;0.0;320.0;-4.44;33.84;-13.44;6.97;0.0;0.7;3.5;-0.01;33.164;24.786392;120.99741;;293.56188069555793;;;164.51613;;0 / 16;105505;2014-12-10 11:21:22:551
-0.16;0.0;9.71;-0.13;0.0;9.8;-0.01;0.0;0.0;0.0;0.0;0.0;320.0;-4.79;34.91;-14.64;8.45;0.0;0.76;3.5;-0.01;33.376;24.786392;120.99741;;293.56188069555793;;;164.51613;;0 / 16;106005;2014-12-10 11:21:23:051
-0.11;0.0;9.65;-0.13;0.0;9.8;0.02;0.01;-0.05;0.0;0.0;0.0;320.0;-3.95;33.78;-13.67;7.02;0.0;0.76;3.5;-0.01;35.958;24.786392;120.99741;;293.56188069555793;;;164.51613;;0 / 16;106504;2014-12-10 11:21:23:550
-0.15;-0.03;9.72;-0.13;0.0;9.8;-0.01;-0.03;0.01;0.0;0.0;0.0;320.0;-4.02;33.12;-13.86;7.23;0.0;0.76;3.5;-0.01;33.528;24.786392;120.99741;;293.56188069555793;;;164.51613;;0 / 16;107010;2014-12-10 11:21:24:056
-0.18;-0.03;9.72;-0.13;0.0;9.8;-0.04;-0.03;0.01;0.0;0.0;0.0;320.0;-4.38;34.73;-13.86;6.82;0.0;0.76;3.5;-0.01;33.35;24.786392;120.99741;;293.56188069555793;;;164.51613;;0 / 16;107507;2014-12-10 11:21:24:553
-0.15;-0.05;9.68;-0.13;0.0;9.8;-0.02;-0.05;-0.01;0.0;0.0;0.0;320.0;-4.19;33.3;-14.58;7.25;0.0;0.76;3.5;-0.01;33.28;24.786392;120.99741;;293.56188069555793;;;164.51613;;0 / 16;108004;2014-12-10 11:21:25:050
-0.17;0.0;9.71;-0.13;0.0;9.8;-0.03;-0.01;0.0;0.0;0.0;0.0;320.0;-5.04;34.98;-14.34;8.43;0.0;0.76;3.5;-0.01;33.049;24.786392;120.99741;;293.56188069555793;;;164.51613;;0 / 16;108505;2014-12-10 11:21:25:551
-0.16;0.02;9.7;-0.13;0.0;9.8;-0.01;0.02;-0.02;0.0;0.0;0.0;320.0;-4.5;34.91;-13.5;6.8;0.0;0.76;3.5;-0.01;33.316;24.786392;120.99741;;293.56188069555793;;;164.51613;;0 / 16;109005;2014-12-10 11:21:26:051
-0.16;-0.01;9.7;-0.13;0.0;9.8;-0.02;-0.02;0.0;0.0;0.0;0.0;320.0;-4.44;33.84;-14.82;7.04;0.0;0.76;3.5;-0.01;33.197;24.786392;120.99741;;293.56188069555793;;;164.51613;;0 / 16;109505;2014-12-10 11:21:26:551
-0.16;-0.01;9.69;-0.13;0.0;9.8;-0.02;-0.01;-0.01;0.0;0.0;0.0;320.0;-3.48;34.25;-13.08;5.33;0.0;0.76;3.5;-0.01;33.976;24.786392;120.99741;;293.56188069555793;;;164.51613;;0 / 16;110005;2014-12-10 11:21:27:051
-0.15;0.0;9.7;-0.13;0.0;9.8;-0.01;0.0;0.0;0.0;0.0;0.0;320.0;-4.85;34.86;-14.75;8.45;0.0;0.76;3.5;-0.01;33.28;24.786392;120.99741;;293.56188069555793;;;164.51613;;0 / 16;110505;2014-12-10 11:21:27:551
-0.13;0.0;9.71;-0.13;0.0;9.8;0.0;0.0;0.0;0.0;0.0;0.0;320.0;-4.62;35.04;-14.88;8.45;0.0;0.76;3.5;-0.01;33.857;24.786392;120.99741;;293.56188069555793;;;164.51613;;0 / 16;111004;2014-12-10 11:21:28:050
-0.14;-0.01;9.68;-0.13;0.0;9.8;0.0;-0.01;-0.02;0.0;0.0;0.0;320.0;-4.85;33.59;-13.56;8.67;0.0;0.76;3.5;-0.01;33.1;24.786392;120.99741;;293.56188069555793;;;164.51613;;0 / 16;111505;2014-12-10 11:21:28:551
-0.17;-0.02;9.69;-0.13;0.0;9.8;-0.02;-0.01;-0.01;0.0;0.01;0.0;320.0;-4.19;36.18;-14.58;6.65;0.0;0.76;3.5;-0.01;33.018;24.786392;120.99741;;293.56188069555793;;;164.51613;;0 / 16;112005;2014-12-10 11:21:29:051
-0.01;0.13;9.75;-0.13;0.0;9.8;0.12;0.13;0.1;0.01;-0.01;0.0;320.0;-4.98;34.2;-13.2;8.65;0.0;0.76;3.5;-0.01;33.347;24.786392;120.99741;;293.56188069555793;;;164.51613;;0 / 16;112505;2014-12-10 11:21:29:551
-0.17;-0.01;9.71;-0.14;0.0;9.8;-0.04;-0.02;0.0;0.0;0.01;0.0;320.0;-4.31;33.71;-14.1;7.04;0.0;0.82;3.5;-0.01;36.161;24.786392;120.99741;;293.56188069555793;;;164.51613;;0 / 16;113006;2014-12-10 11:21:30:052
-0.12;-0.04;9.71;-0.13;0.0;9.8;0.0;-0.04;0.0;0.0;0.0;0.0;320.0;-4.44;35.39;-14.04;6.84;0.0;0.82;3.5;-0.01;33.464;24.786392;120.99741;;293.56188069555793;;;164.51613;;0 / 16;113504;2014-12-10 11:21:30:550
-0.09;0.02;9.72;-0.13;0.0;9.8;0.03;0.01;0.01;0.0;0.0;0.0;320.0;-4.44;33.78;-13.79;7.02;0.0;0.76;3.5;-0.01;33.123;24.786392;120.99741;;293.56188069555793;;;164.51613;;0 / 16;114004;2014-12-10 11:21:31:050
-0.14;0.01;9.72;-0.13;0.0;9.8;0.0;0.0;0.0;0.0;0.0;0.0;320.0;-4.08;35.16;-13.67;6.82;0.0;0.76;3.5;-0.01;32.664;24.786392;120.99741;;293.56188069555793;;;164.51613;;0 / 16;114504;2014-12-10 11:21:31:550
-0.09;0.01;9.72;-0.13;0.0;9.8;0.03;0.0;-0.01;0.0;0.0;0.0;320.0;-4.31;34.25;-13.44;7.0;0.0;0.76;3.5;-0.01;32.81;24.786392;120.99741;;293.56188069555793;;;164.51613;;0 / 16;115005;2014-12-10 11:21:32:051
-0.12;0.0;9.7;-0.13;0.0;9.8;0.0;0.0;0.0;0.0;0.0;0.0;320.0;-4.92;34.68;-14.16;8.43;0.0;0.76;3.5;-0.01;34.388;24.786392;120.99741;;293.56188069555793;;;164.51613;;0 / 16;115504;2014-12-10 11:21:32:550
-0.13;0.02;9.73;-0.13;0.0;9.8;0.0;0.01;0.01;0.0;0.0;0.0;320.0;-2.76;34.43;-13.5;5.33;0.0;0.76;3.5;-0.01;33.189;24.786392;120.99741;;293.56188069555793;;;164.51613;;0 / 16;116004;2014-12-10 11:21:33:050
-0.12;0.0;9.71;-0.13;0.0;9.8;0.01;0.0;0.0;0.0;0.0;0.0;320.0;-5.46;34.32;-14.88;8.69;0.0;0.76;3.5;-0.01;33.032;24.786392;120.99741;;293.56188069555793;;;164.51613;;0 / 16;116504;2014-12-10 11:21:33:550
-0.2;-0.03;9.87;-0.13;0.0;9.8;-0.06;-0.04;0.12;0.0;0.0;0.0;320.0;-4.98;34.32;-14.88;8.69;0.0;0.76;3.5;-0.01;34.236;24.786392;120.99741;;293.56188069555793;;;164.51613;;0 / 16;117004;2014-12-10 11:21:34:050
-0.13;0.0;9.71;-0.13;0.0;9.8;0.0;0.0;0.0;0.0;0.0;0.0;320.0;-4.14;33.96;-13.67;7.02;0.0;0.76;3.5;-0.01;33.959;24.786392;120.99741;;293.56188069555793;;;164.51613;;0 / 16;117506;2014-12-10 11:21:34:552
-0.1;0.02;9.73;-0.13;0.0;9.8;0.02;0.02;0.0;0.0;0.0;0.0;320.0;-3.95;35.34;-15.0;6.84;0.0;0.76;3.5;-0.01;33.962;24.786392;120.99741;;293.56188069555793;;;164.51613;;0 / 16;118004;2014-12-10 11:21:35:050
-0.18;0.01;9.66;-0.13;0.0;9.8;-0.03;0.01;-0.04;0.0;0.0;0.0;320.0;-4.08;32.93;-13.67;7.23;0.0;0.76;3.5;-0.01;33.537;24.786392;120.99741;;293.56188069555793;;;164.51613;;0 / 16;118505;2014-12-10 11:21:35:551
-0.16;-0.02;9.7;-0.13;0.0;9.8;-0.03;-0.02;0.0;0.0;0.0;0.0;320.0;-4.44;33.05;-13.08;7.21;0.0;0.76;3.5;-0.01;33.143;24.786392;120.99741;;293.56188069555793;;;164.51613;;0 / 16;119004;2014-12-10 11:21:36:050
-0.12;0.0;9.71;-0.13;0.0;9.8;0.0;0.0;0.0;0.0;0.0;0.0;320.0;-5.16;34.86;-14.34;8.43;0.0;0.76;3.5;-0.01;33.626;24.786392;120.99741;;293.56188069555793;;;164.51613;;0 / 16;119505;2014-12-10 11:21:36:551
-0.16;-0.02;9.72;-0.13;0.0;9.8;-0.02;-0.02;0.01;0.0;0.0;0.0;320.0;-4.02;33.48;-14.52;7.25;0.0;0.76;3.5;-0.01;33.869;24.786392;120.99741;;293.56188069555793;;;164.51613;;0 / 16;120005;2014-12-10 11:21:37:051
-0.1;0.03;9.69;-0.13;0.0;9.8;0.02;0.02;-0.01;0.0;0.0;0.0;320.0;-4.19;34.73;-14.46;6.82;0.0;0.76;3.5;-0.01;33.852;24.786392;120.99741;;293.56188069555793;;;164.51613;;0 / 16;120504;2014-12-10 11:21:37:550
-0.23;-0.06;9.7;-0.14;0.0;9.8;-0.08;-0.06;0.0;0.0;0.0;0.0;320.0;-4.73;35.39;-13.67;8.43;0.0;0.76;3.5;-0.01;35.03;24.786392;120.99741;;293.56188069555793;;;164.51613;;0 / 16;121005;2014-12-10 11:21:38:051
-0.16;-0.01;9.68;-0.13;0.0;9.8;-0.03;-0.03;-0.01;0.0;0.0;0.0;320.0;-4.31;34.32;-14.52;7.07;0.0;0.82;3.5;-0.01;34.683;24.786392;120.99741;;293.56188069555793;;;164.51613;;0 / 16;121507;2014-12-10 11:21:38:553
-0.13;0.0;9.76;-0.13;0.0;9.8;0.0;-0.01;0.03;0.0;0.0;0.0;320.0;-4.38;34.73;-14.7;6.84;0.0;0.76;3.5;-0.01;33.738;24.786392;120.99741;;293.56188069555793;;;164.51613;;0 / 16;122004;2014-12-10 11:21:39:050
-0.15;0.0;9.69;-0.13;0.0;9.8;0.02;0.01;0.0;0.0;0.0;0.0;320.0;-4.98;33.18;-14.34;8.93;0.0;0.76;3.5;-0.01;34.054;24.786392;120.99741;;293.56188069555793;;;164.51613;;0 / 16;122504;2014-12-10 11:21:39:550
-0.1;0.01;9.73;-0.14;0.0;9.8;0.04;0.02;0.02;0.0;0.0;0.0;320.0;-5.94;34.62;-14.7;10.07;0.0;0.82;3.5;-0.01;33.37;24.786392;120.99741;;293.56188069555793;;;164.51613;;0 / 16;123005;2014-12-10 11:21:40:051
0.09;-0.06;10.07;-0.12;0.0;9.8;0.19;-0.08;0.53;0.0;-0.09;0.0;320.0;-4.19;34.25;-13.86;7.04;0.0;0.82;3.5;-0.01;34.036;24.786392;120.99741;;293.56188069555793;;;164.51613;;0 / 16;123504;2014-12-10 11:21:40:550
0.0;0.13;9.73;-0.13;0.0;9.8;0.04;0.04;-0.01;0.0;-0.01;0.0;320.0;-5.46;33.84;-15.12;8.67;0.0;0.7;3.5;-0.01;33.384;24.786392;120.99741;;293.56188069555793;;;164.51613;;0 / 16;124005;2014-12-10 11:21:41:051
-0.17;-0.07;9.71;-0.14;0.0;9.8;-0.04;-0.08;0.02;0.0;0.01;0.0;320.0;-4.73;33.96;-13.2;8.65;0.0;0.76;3.5;-0.01;33.07;24.786392;120.99741;;293.56188069555793;;;164.51613;;0 / 16;124504;2014-12-10 11:21:41:550
-0.12;0.0;9.7;-0.14;0.0;9.8;0.01;0.0;0.0;0.0;0.0;0.0;320.0;-3.95;34.02;-13.62;7.04;0.0;0.82;3.5;-0.01;32.938;24.786392;120.99741;;293.56188069555793;;;164.51613;;0 / 16;125005;2014-12-10 11:21:42:051
-0.15;0.0;9.69;-0.14;0.0;9.8;-0.01;-0.01;0.0;0.0;0.0;0.0;320.0;-4.31;34.25;-14.7;7.07;0.0;0.82;3.5;-0.01;33.069;24.786392;120.99741;;293.56188069555793;;;164.51613;;0 / 16;125505;2014-12-10 11:21:42:551
-0.13;0.01;9.69;-0.14;0.0;9.8;0.0;0.01;0.0;0.0;0.0;0.0;320.0;-4.14;33.71;-13.74;7.04;0.0;0.82;3.5;-0.01;33.138;24.786392;120.99741;;293.56188069555793;;;164.51613;;0 / 16;126004;2014-12-10 11:21:43:050
-0.14;0.02;9.7;-0.14;0.0;9.8;0.0;0.01;0.0;0.0;0.0;0.0;320.0;-5.04;35.16;-14.46;8.45;0.0;0.82;3.5;-0.01;33.314;24.786392;120.99741;;293.56188069555793;;;164.51613;;0 / 16;126505;2014-12-10 11:21:43:551
-0.14;0.01;9.72;-0.14;0.0;9.8;0.0;0.0;0.01;0.0;0.0;0.0;320.0;-4.79;34.91;-15.0;8.47;0.0;0.82;3.5;-0.01;32.828;24.786392;120.99741;;293.56188069555793;;;164.51613;;0 / 16;127005;2014-12-10 11:21:44:051
-0.15;0.0;9.71;-0.14;0.0;9.8;-0.01;0.0;0.0;0.0;0.0;0.0;320.0;-4.38;34.07;-13.56;7.04;0.0;0.82;3.5;-0.01;32.796;24.786392;120.99741;;293.56188069555793;;;164.51613;;0 / 16;127505;2014-12-10 11:21:44:551
-0.13;0.03;9.72;-0.14;0.0;9.8;0.0;0.02;0.01;0.0;0.0;0.0;320.0;-3.84;36.3;-13.92;6.65;0.0;0.82;3.5;-0.01;33.023;24.786392;120.99741;;293.56188069555793;;;164.51613;;0 / 16;128005;2014-12-10 11:21:45:051
-0.16;-0.02;9.72;-0.14;0.0;9.8;-0.01;-0.02;0.01;0.0;0.0;0.0;320.0;-4.85;33.78;-13.92;8.69;0.0;0.82;3.5;-0.01;32.77;24.786392;120.99741;;293.56188069555793;;;164.51613;;0 / 16;128505;2014-12-10 11:21:45:551
-0.15;-0.02;9.71;-0.14;0.0;9.8;-0.02;-0.02;0.0;0.0;0.01;0.0;320.0;-4.67;33.84;-14.1;8.69;0.0;0.82;3.5;-0.01;32.623;24.786392;120.99741;;293.56188069555793;;;164.51613;;0 / 16;129004;2014-12-10 11:21:46:050
-0.15;-0.02;9.73;-0.14;0.0;9.8;-0.01;-0.02;0.01;0.0;0.0;0.0;320.0;-3.17;35.16;-14.21;5.22;0.0;0.82;3.5;-0.01;33.625;24.786392;120.99741;;293.56188069555793;;;164.51613;;0 / 16;129505;2014-12-10 11:21:46:551
-0.15;0.0;9.7;-0.14;0.0;9.8;-0.01;0.0;-0.01;0.0;0.0;0.0;320.0;-4.56;34.43;-14.28;8.69;0.0;0.82;3.5;-0.01;32.877;24.786392;120.99741;;293.56188069555793;;;164.51613;;0 / 16;130004;2014-12-10 11:21:47:050
-0.15;-0.01;9.74;-0.14;0.0;9.8;-0.01;-0.01;0.02;0.0;0.0;0.0;320.0;-4.62;34.98;-14.04;6.84;0.0;0.82;3.5;-0.01;33.079;24.786392;120.99741;;293.56188069555793;;;164.51613;;0 / 16;130505;2014-12-10 11:21:47:551
-0.11;0.0;9.72;-0.14;0.0;9.8;0.02;0.0;0.01;0.0;0.01;0.0;320.0;-4.08;35.28;-14.1;6.84;0.0;0.82;3.5;-0.01;33.306;24.786392;120.99741;;293.56188069555793;;;164.51613;;0 / 16;131004;2014-12-10 11:21:48:050
-0.14;0.01;9.71;-0.14;0.0;9.8;0.0;0.0;0.01;0.0;0.0;0.0;320.0;-4.79;34.14;-14.16;8.69;0.0;0.82;3.5;-0.01;33.273;24.786392;120.99741;;293.56188069555793;;;164.51613;;0 / 16;131505;2014-12-10 11:21:48:551
-0.14;0.0;9.82;-0.14;0.0;9.8;0.0;-0.01;0.09;0.0;0.0;0.0;320.0;-3.48;35.75;-14.1;5.08;0.0;0.82;3.5;-0.01;33.23;24.786392;120.99741;;293.56188069555793;;;164.51613;;0 / 16;132004;2014-12-10 11:21:49:050
-0.13;0.01;9.69;-0.14;0.0;9.8;0.0;0.01;0.0;0.0;0.0;0.0;320.0;-5.16;34.73;-13.92;8.45;0.0;0.82;3.5;-0.01;33.394;24.786392;120.99741;;293.56188069555793;;;164.51613;;0 / 16;132504;2014-12-10 11:21:49:550
-0.11;0.06;9.72;-0.14;0.0;9.8;0.03;0.06;0.0;0.0;0.0;0.0;320.0;-5.04;35.04;-14.46;8.45;0.0;0.82;3.5;-0.01;32.794;24.786392;120.99741;;293.56188069555793;;;164.51613;;0 / 16;133005;2014-12-10 11:21:50:051
-0.1;0.04;9.71;-0.14;0.0;9.8;0.03;0.03;0.0;0.0;0.0;0.0;320.0;-4.44;35.04;-13.08;6.82;0.0;0.82;3.5;-0.01;33.369;24.786392;120.99741;;293.56188069555793;;;164.51613;;0 / 16;133505;2014-12-10 11:21:50:551
-0.08;0.12;9.69;-0.15;0.0;9.8;0.07;0.12;-0.03;0.0;-0.02;0.0;320.0;-5.1;33.23;-13.67;8.95;0.0;0.82;3.5;-0.01;32.969;24.786392;120.99741;;293.56188069555793;;;164.51613;;0 / 16;134005;2014-12-10 11:21:51:051
-0.18;-0.03;9.68;-0.15;0.0;9.8;-0.04;-0.11;-0.04;0.0;0.01;0.0;320.0;-4.44;34.07;-14.1;7.06;0.0;0.88;3.5;-0.01;32.683;24.786392;120.99741;;293.56188069555793;;;164.51613;;0 / 16;134506;2014-12-10 11:21:51:552
-0.19;0.0;9.71;-0.16;0.0;9.8;-0.05;0.0;0.0;0.0;0.01;0.0;320.0;-4.19;34.73;-13.86;6.89;0.0;0.94;3.5;-0.01;32.951;24.786392;120.99741;;293.56188069555793;;;164.51613;;0 / 16;135005;2014-12-10 11:21:52:051
0.01;0.12;9.75;-0.17;0.0;9.8;0.15;0.12;0.05;0.01;-0.01;0.0;320.0;-4.25;34.68;-13.79;6.89;0.0;0.94;3.5;-0.01;33.047;24.786392;120.99741;;293.56188069555793;;;164.51613;;0 / 16;135505;2014-12-10 11:21:52:551
-0.14;0.01;9.72;-0.17;0.0;9.8;0.0;0.0;0.01;0.0;0.0;0.0;320.0;-4.08;35.09;-13.25;6.88;0.0;0.99;3.5;-0.01;32.992;24.786392;120.99741;;293.56188069555793;;;164.51613;;0 / 16;136005;2014-12-10 11:21:53:051
-0.15;-0.02;9.7;-0.16;0.0;9.8;-0.02;-0.02;0.0;0.0;0.01;0.0;320.0;-5.1;34.07;-14.7;8.79;0.0;0.99;3.5;-0.01;33.19;24.786392;120.99741;;293.56188069555793;;;164.51613;;0 / 16;136504;2014-12-10 11:21:53:550
-0.14;0.0;9.7;-0.16;0.0;9.8;0.0;0.0;-0.01;0.0;0.0;0.0;320.0;-5.16;34.8;-14.88;8.52;0.0;0.94;3.5;-0.01;32.858;24.786392;120.99741;;293.56188069555793;;;164.51613;;0 / 16;137005;2014-12-10 11:21:54:051
-0.14;0.0;9.72;-0.16;0.0;9.8;0.0;0.0;0.01;0.0;0.0;0.0;320.0;-4.14;34.07;-13.74;7.09;0.0;0.94;3.5;-0.01;32.762;24.786392;120.99741;;293.56188069555793;;;164.51613;;0 / 16;137504;2014-12-10 11:21:54:550
-0.1;0.02;9.7;-0.16;0.0;9.8;0.02;0.02;0.0;0.0;0.0;0.0;320.0;-5.28;33.48;-14.58;9.03;0.0;0.94;3.5;-0.01;32.686;24.786392;120.99741;;293.56188069555793;;;164.51613;;0 / 16;138005;2014-12-10 11:21:55:051
-0.58;-0.16;9.26;-0.16;0.0;9.8;-0.43;-0.15;-0.36;-0.01;0.03;0.0;320.0;-3.9;34.38;-13.44;7.06;0.0;0.94;3.5;-0.01;33.062;24.786392;120.99741;;293.56188069555793;;;164.51613;;0 / 16;138504;2014-12-10 11:21:55:550
-0.07;0.05;9.72;-0.16;0.0;9.8;0.05;0.05;0.01;0.0;-0.01;0.0;320.0;-4.73;34.86;-13.5;8.49;0.0;0.99;3.5;-0.01;32.751;24.786392;120.99741;;293.56188069555793;;;164.51613;;0 / 16;139004;2014-12-10 11:21:56:050
-0.09;0.04;9.71;-0.16;0.0;9.8;0.04;0.03;0.0;0.01;0.0;0.0;320.0;-4.56;34.43;-14.7;8.77;0.0;0.94;3.5;-0.01;32.845;24.786392;120.99741;;293.56188069555793;;;164.51613;;0 / 16;139506;2014-12-10 11:21:56:552
-0.11;0.01;9.7;-0.16;0.0;9.8;0.01;0.01;0.0;0.0;0.0;0.0;320.0;-3.84;34.43;-13.44;7.06;0.0;0.94;3.5;-0.01;32.978;24.786392;120.99741;;293.56188069555793;;;164.51613;;0 / 16;140004;2014-12-10 11:21:57:050
-0.13;0.0;9.69;-0.16;0.0;9.8;0.0;0.0;-0.02;0.0;0.0;0.0;320.0;-3.9;34.14;-13.92;7.09;0.0;0.94;3.5;-0.01;33.141;24.786392;120.99741;;293.56188069555793;;;164.51613;;0 / 16;140505;2014-12-10 11:21:57:551
-0.14;0.01;9.69;-0.16;0.0;9.8;0.0;0.0;0.0;0.0;0.0;0.0;320.0;-4.56;34.68;-14.7;8.52;0.0;0.94;3.5;-0.01;32.911;24.786392;120.99741;;293.56188069555793;;;164.51613;;0 / 16;141005;2014-12-10 11:21:58:051
-0.15;0.0;9.7;-0.15;0.0;9.8;0.0;0.0;0.0;0.0;0.0;0.0;320.0;-4.79;34.25;-12.78;8.71;0.0;0.94;3.5;-0.01;32.85;24.786392;120.99741;;293.56188069555793;;;164.51613;;0 / 16;141505;2014-12-10 11:21:58:551
-0.11;-0.01;9.71;-0.15;0.0;9.8;0.01;-0.01;0.0;0.0;0.0;0.0;320.0;-4.79;36.18;-15.83;8.29;0.0;0.88;3.5;1010.1;33.056;24.786392;120.99741;;293.56188069555793;;;164.51613;;0 / 16;142005;2014-12-10 11:21:59:051
-0.12;0.0;9.71;-0.15;0.0;9.8;0.01;0.0;0.0;0.0;0.0;0.0;320.0;-4.85;34.2;-14.82;8.74;0.0;0.88;3.5;-0.01;33.439;24.786392;120.99741;;293.56188069555793;;;164.51613;;0 / 16;142505;2014-12-10 11:21:59:551
-0.14;0.01;9.69;-0.15;0.0;9.8;0.0;0.01;0.02;0.0;0.0;0.0;320.0;-3.84;33.48;-14.28;7.28;0.0;0.88;3.5;-0.01;33.162;24.786392;120.99741;;293.56188069555793;;;164.51613;;0 / 16;143005;2014-12-10 11:22:00:051
-0.13;0.01;9.69;-0.15;0.0;9.8;0.01;0.0;0.0;0.0;0.0;0.0;320.0;-4.38;35.04;-13.67;6.87;0.0;0.88;3.5;-0.01;33.475;24.786392;120.99741;;293.56188069555793;;;164.51613;;0 / 16;143506;2014-12-10 11:22:00:552
-0.13;0.01;9.69;-0.15;0.0;9.8;0.0;0.0;0.02;0.0;0.0;0.0;320.0;-4.98;32.64;-14.04;8.98;0.0;0.88;3.5;-0.01;33.097;24.786392;120.99741;;293.56188069555793;;;164.51613;;0 / 16;144005;2014-12-10 11:22:01:051
-0.14;0.01;9.71;-0.15;0.0;9.8;0.0;0.0;0.0;0.0;0.0;0.0;320.0;-4.25;33.96;-13.92;7.06;0.0;0.88;3.5;-0.01;33.639;24.786392;120.99741;;293.56188069555793;;;164.51613;;0 / 16;144505;2014-12-10 11:22:01:551
-0.11;0.02;9.71;-0.15;0.0;9.8;0.01;0.0;0.0;0.0;0.0;0.0;320.0;-4.79;34.62;-14.64;8.5;0.0;0.88;3.5;-0.01;33.334;24.786392;120.99741;;293.56188069555793;;;164.51613;;0 / 16;145005;2014-12-10 11:22:02:051
-0.11;0.01;9.72;-0.15;0.0;9.8;0.03;0.01;0.02;0.0;0.0;0.0;320.0;-4.5;33.96;-13.98;7.06;0.0;0.88;3.5;-0.01;32.809;24.786392;120.99741;;293.56188069555793;;;164.51613;;0 / 16;145506;2014-12-10 11:22:02:552
-0.11;0.0;9.7;-0.14;0.0;9.8;0.02;0.0;0.0;-0.01;0.0;0.0;320.0;-4.98;35.39;-14.34;8.47;0.0;0.88;3.5;-0.01;33.23;24.786392;120.99741;;293.56188069555793;;;164.51613;;0 / 16;146004;2014-12-10 11:22:03:050
-0.13;0.0;9.68;-0.14;0.0;9.8;0.0;0.0;-0.01;0.0;0.0;0.0;320.0;-4.92;33.48;-13.67;8.95;0.0;0.82;3.5;-0.01;33.084;24.786392;120.99741;;293.56188069555793;;;164.51613;;0 / 16;146511;2014-12-10 11:22:03:557
-0.14;0.0;9.69;-0.14;0.0;9.8;0.0;0.0;-0.02;0.0;0.0;0.0;320.0;-5.16;33.71;-13.79;8.69;0.0;0.82;3.5;-0.01;33.258;24.786392;120.99741;;293.56188069555793;;;164.51613;;0 / 16;147018;2014-12-10 11:22:04:064
-0.16;0.02;9.66;-0.14;0.0;9.8;-0.02;0.01;-0.04;0.0;0.0;0.0;320.0;-4.19;34.68;-13.5;6.82;0.0;0.82;3.5;-0.01;32.796;24.786392;120.99741;;293.56188069555793;;;164.51613;;0 / 16;147505;2014-12-10 11:22:04:551
-0.14;0.0;9.69;-0.14;0.0;9.8;0.0;0.0;-0.01;0.0;0.0;0.0;320.0;-5.16;33.36;-15.24;8.98;0.0;0.82;3.5;-0.01;33.113;24.786392;120.99741;;293.56188069555793;;;164.51613;;0 / 16;148005;2014-12-10 11:22:05:051
-0.15;0.0;9.71;-0.14;0.0;9.8;0.0;0.0;0.0;0.0;0.0;0.0;320.0;-5.16;34.2;-14.16;8.69;0.0;0.82;3.5;-0.01;33.142;24.786392;120.99741;;293.56188069555793;;;164.51613;;0 / 16;148505;2014-12-10 11:22:05:551
-0.14;0.0;9.68;-0.14;0.0;9.8;0.0;0.0;-0.01;0.0;0.0;0.0;320.0;-4.38;33.78;-14.4;7.04;0.0;0.82;3.5;-0.01;32.555;24.786392;120.99741;;293.56188069555793;;;164.51613;;0 / 16;149005;2014-12-10 11:22:06:051
-0.16;0.0;9.7;-0.14;0.0;9.8;-0.01;0.0;-0.01;0.0;0.0;0.0;320.0;-5.28;33.96;-14.75;8.72;0.0;0.82;3.5;-0.01;32.921;24.786392;120.99741;;293.56188069555793;;;164.51613;;0 / 16;149505;2014-12-10 11:22:06:551
-0.13;0.0;9.71;-0.14;0.0;9.8;0.01;0.0;0.0;0.0;0.0;0.0;320.0;-3.84;34.68;-13.74;6.84;0.0;0.82;3.5;-0.01;33.139;24.786392;120.99741;;293.56188069555793;;;164.51613;;0 / 16;150004;2014-12-10 11:22:07:050
-0.16;0.0;9.7;-0.14;0.0;9.8;0.0;0.0;0.0;0.0;0.0;0.0;320.0;-5.46;34.02;-14.04;7.04;0.0;0.82;3.5;-0.01;33.587;24.786392;120.99741;;293.56188069555793;;;164.51613;;0 / 16;150505;2014-12-10 11:22:07:551
-0.12;0.01;9.7;-0.14;0.0;9.8;0.0;0.0;0.0;0.0;0.0;0.0;320.0;-5.22;34.32;-14.46;8.69;0.0;0.82;3.5;-0.01;32.792;24.786392;120.99741;;293.56188069555793;;;164.51613;;0 / 16;151005;2014-12-10 11:22:08:051
-0.13;0.0;9.71;-0.14;0.0;9.8;0.0;0.0;0.01;0.0;0.0;0.0;320.0;-3.84;34.14;-13.86;7.04;0.0;0.82;3.5;-0.01;33.275;24.786392;120.99741;;293.56188069555793;;;164.51613;;0 / 16;151505;2014-12-10 11:22:08:551
-0.14;0.0;9.69;-0.14;0.0;9.8;0.01;0.0;0.0;0.0;-0.01;0.0;320.0;-5.4;35.04;-14.7;8.47;0.0;0.82;3.5;-0.01;32.9;24.786392;120.99741;;293.56188069555793;;;164.51613;;0 / 16;152005;2014-12-10 11:22:09:051
-0.14;0.0;9.7;-0.14;0.0;9.8;0.01;0.0;0.02;0.0;0.0;0.0;320.0;-4.85;34.2;-13.67;8.69;0.0;0.82;3.5;-0.01;33.404;24.786392;120.99741;;293.56188069555793;;;164.51613;;0 / 16;152505;2014-12-10 11:22:09:551
-0.12;0.0;9.71;-0.14;0.0;9.8;0.01;0.0;0.0;0.0;0.0;0.0;320.0;-4.25;34.25;-13.67;7.04;0.0;0.82;3.5;-0.01;33.499;24.786392;120.99741;;293.56188069555793;;;164.51613;;0 / 16;153005;2014-12-10 11:22:10:051
-0.13;0.0;9.69;-0.14;0.0;9.8;0.0;0.0;0.0;0.0;0.0;0.0;320.0;-4.73;34.5;-14.4;8.45;0.0;0.82;3.5;-0.01;33.095;24.786392;120.99741;;293.56188069555793;;;164.51613;;0 / 16;153505;2014-12-10 11:22:10:551
-0.14;-0.01;9.71;-0.14;0.0;9.8;0.0;-0.01;0.0;0.0;0.0;0.0;320.0;-4.02;33.05;-13.86;7.25;0.0;0.82;3.5;-0.01;32.953;24.786392;120.99741;;293.56188069555793;;;164.51613;;0 / 16;154005;2014-12-10 11:22:11:051
-0.15;0.0;9.69;-0.14;0.0;9.8;-0.01;0.0;0.0;0.0;0.0;0.0;320.0;-4.98;34.73;-14.21;8.45;0.0;0.82;3.5;-0.01;33.111;24.786392;120.99741;;293.56188069555793;;;164.51613;;0 / 16;154505;2014-12-10 11:22:11:551
-0.16;-0.02;9.69;-0.14;0.0;9.8;0.0;-0.03;0.0;0.0;0.0;0.0;320.0;-4.92;34.86;-13.92;8.45;0.0;0.82;3.5;-0.01;33.003;24.786392;120.99741;;293.56188069555793;;;164.51613;;0 / 16;155004;2014-12-10 11:22:12:050
-0.01;0.08;9.76;-0.14;0.0;9.8;0.13;0.07;0.07;0.0;-0.03;0.0;320.0;-5.28;32.46;-13.74;9.23;0.0;0.82;3.5;-0.01;33.028;24.786392;120.99741;;293.56188069555793;;;164.51613;;0 / 16;155519;2014-12-10 11:22:12:565
-0.11;0.01;9.71;-0.14;0.0;9.8;0.01;0.0;0.0;0.0;0.0;0.0;320.0;-4.25;35.09;-13.25;6.82;0.0;0.82;3.5;-0.01;32.568;24.786392;120.99741;;293.56188069555793;;;164.51613;;0 / 16;156005;2014-12-10 11:22:13:051
-0.14;0.01;9.71;-0.14;0.0;9.8;0.0;0.01;0.0;0.0;0.0;0.0;320.0;-4.38;34.02;-13.92;7.04;0.0;0.82;3.5;-0.01;33.859;24.786392;120.99741;;293.56188069555793;;;164.51613;;0 / 16;156505;2014-12-10 11:22:13:551
-0.13;-0.01;9.7;-0.14;0.0;9.8;0.0;-0.02;0.0;0.0;0.0;0.0;320.0;-4.44;33.05;-14.52;7.28;0.0;0.82;3.5;-0.01;33.776;24.786392;120.99741;;293.56188069555793;;;164.51613;;0 / 16;157005;2014-12-10 11:22:14:051
-0.13;0.02;9.7;-0.14;0.0;9.8;-0.01;0.0;0.0;0.0;0.0;0.0;320.0;-4.62;34.38;-13.44;8.67;0.0;0.82;3.5;-0.01;33.346;24.786392;120.99741;;293.56188069555793;;;164.51613;;0 / 16;157505;2014-12-10 11:22:14:551
-0.16;-0.01;9.68;-0.14;0.0;9.8;-0.02;-0.02;-0.02;0.0;0.01;0.0;320.0;-4.31;33.23;-14.52;7.28;0.0;0.82;3.5;-0.01;34.032;24.786392;120.99741;;293.56188069555793;;;164.51613;;0 / 16;158005;2014-12-10 11:22:15:051
-0.15;0.01;9.69;-0.14;0.0;9.8;0.0;0.0;0.0;0.0;0.0;0.0;320.0;-4.25;34.86;-13.98;6.84;0.0;0.82;3.5;-0.01;33.255;24.786392;120.99741;;293.56188069555793;;;164.51613;;0 / 16;158505;2014-12-10 11:22:15:551
-0.14;0.0;9.7;-0.14;0.0;9.8;0.0;0.0;0.0;0.0;0.0;0.0;320.0;-5.04;34.8;-13.5;8.43;0.0;0.82;3.5;-0.01;33.985;24.786392;120.99741;;293.56188069555793;;;164.51613;;0 / 16;159005;2014-12-10 11:22:16:051
-0.12;0.03;9.69;-0.14;0.0;9.8;0.01;0.01;0.0;0.0;0.0;0.0;320.0;-5.1;33.78;-14.16;8.69;0.0;0.82;3.5;-0.01;33.691;24.786392;120.99741;;293.56188069555793;;;164.51613;;0 / 16;159506;2014-12-10 11:22:16:552
-0.16;0.0;9.8;-0.14;0.0;9.8;-0.02;-0.01;0.08;0.0;0.0;0.0;320.0;-3.48;34.32;-13.38;5.35;0.0;0.82;3.5;-0.01;33.403;24.786392;120.99741;;293.56188069555793;;;164.51613;;0 / 16;160004;2014-12-10 11:22:17:050
-0.13;0.0;9.71;-0.14;0.0;9.8;0.0;0.0;0.0;0.0;0.0;0.0;320.0;-5.04;34.07;-14.7;8.72;0.0;0.82;3.5;-0.01;33.535;24.786392;120.99741;;293.56188069555793;;;164.51613;;0 / 16;160512;2014-12-10 11:22:17:558
-0.1;0.02;9.71;-0.14;0.0;9.8;0.03;0.01;0.01;0.0;0.0;0.0;320.0;-5.4;34.32;-15.42;8.72;0.0;0.82;3.5;-0.01;33.7;24.786392;120.99741;;293.56188069555793;;;164.51613;;0 / 16;161005;2014-12-10 11:22:18:051
-0.13;0.01;9.69;-0.14;0.0;9.8;0.01;0.01;-0.01;0.0;0.0;0.0;320.0;-4.31;35.16;-13.86;6.84;0.0;0.82;3.5;-0.01;33.133;24.786392;120.99741;;293.56188069555793;;;164.51613;;0 / 16;161504;2014-12-10 11:22:18:550
-0.1;0.01;9.71;-0.14;0.0;9.8;0.02;0.0;0.0;0.0;0.0;0.0;320.0;-4.85;35.16;-14.58;8.47;0.0;0.82;3.5;-0.01;33.25;24.786392;120.99741;;293.56188069555793;;;164.51613;;0 / 16;162005;2014-12-10 11:22:19:051
-0.15;-0.02;9.7;-0.14;0.0;9.8;0.0;-0.02;0.0;0.0;0.0;0.0;320.0;-4.08;33.84;-13.86;7.04;0.0;0.82;3.5;-0.01;32.529;24.786392;120.99741;;293.56188069555793;;;164.51613;;0 / 15;162505;2014-12-10 11:22:19:551
-0.13;0.03;9.69;-0.14;0.0;9.8;0.0;0.02;-0.01;0.0;0.0;0.0;320.0;-3.95;34.38;-13.5;7.02;0.0;0.82;3.5;-0.01;32.656;24.786392;120.99741;;293.56188069555793;;;164.51613;;0 / 15;163016;2014-12-10 11:22:20:062
-0.17;-0.01;9.68;-0.14;0.0;9.8;-0.02;-0.02;-0.01;0.0;0.0;0.0;320.0;-5.52;34.98;-15.0;10.07;0.0;0.82;3.5;-0.01;33.89;24.786392;120.99741;;293.56188069555793;;;164.51613;;0 / 16;163505;2014-12-10 11:22:20:551
-0.14;-0.01;9.71;-0.14;0.0;9.8;-0.01;-0.01;0.01;0.0;0.0;0.0;320.0;-4.25;34.14;-14.21;7.04;0.0;0.82;3.5;-0.01;33.627;24.786392;120.99741;;293.56188069555793;;;164.51613;;0 / 16;164005;2014-12-10 11:22:21:051
-0.15;0.0;9.68;-0.14;0.0;9.8;0.0;0.0;-0.01;0.0;0.0;0.0;320.0;-4.67;34.8;-14.34;8.45;0.0;0.82;3.5;-0.01;32.63;24.786392;120.99741;;293.56188069555793;;;164.51613;;0 / 16;164504;2014-12-10 11:22:21:550
-0.17;0.0;9.68;-0.14;0.0;9.8;-0.02;0.0;-0.01;0.0;0.0;0.0;320.0;-4.62;34.86;-14.58;8.47;0.0;0.82;3.5;-0.01;33.291;24.786392;120.99741;;293.56188069555793;;;164.51613;;0 / 16;165004;2014-12-10 11:22:22:050
-0.13;0.0;9.7;-0.14;0.0;9.8;0.02;0.0;0.0;0.0;0.0;0.0;320.0;-4.31;33.41;-13.67;7.25;0.0;0.82;3.5;-0.01;32.909;24.786392;120.99741;;293.56188069555793;;;164.51613;;0 / 16;165505;2014-12-10 11:22:22:551
-0.13;0.0;9.71;-0.14;0.0;9.8;0.0;-0.01;0.01;0.0;0.0;0.0;320.0;-4.08;35.34;-15.42;6.87;0.0;0.82;3.5;-0.01;33.294;24.786392;120.99741;;293.56188069555793;;;164.51613;;0 / 16;166005;2014-12-10 11:22:23:051
-0.14;0.0;9.69;-0.14;0.0;9.8;0.0;0.0;0.0;0.0;0.0;0.0;320.0;-4.56;33.96;-13.62;8.69;0.0;0.82;3.5;-0.01;34.719;24.786392;120.99741;;293.56188069555793;;;164.51613;;0 / 15;166507;2014-12-10 11:22:23:553
-0.13;0.01;9.69;-0.14;0.0;9.8;0.0;0.0;0.0;0.0;0.0;0.0;320.0;-4.44;33.84;-13.44;7.02;0.0;0.82;3.5;-0.01;34.147;24.786392;120.99741;;293.56188069555793;;;164.51613;;0 / 15;167004;2014-12-10 11:22:24:050
-0.14;0.02;9.71;-0.14;0.0;9.8;0.0;0.01;0.0;0.0;0.0;0.0;320.0;-5.33;34.73;-15.42;8.47;0.0;0.82;3.5;-0.01;33.196;24.786392;120.99741;;293.56188069555793;;;164.51613;;0 / 16;167505;2014-12-10 11:22:24:551
-0.14;0.0;9.72;-0.14;0.0;9.8;0.0;0.0;0.01;0.0;0.0;0.0;320.0;-4.31;33.36;-13.08;7.23;0.0;0.82;3.5;-0.01;32.967;24.786392;120.99741;;293.56188069555793;;;164.51613;;0 / 16;168005;2014-12-10 11:22:25:051
-0.15;0.01;9.68;-0.14;0.0;9.8;0.0;0.01;-0.02;0.0;0.0;0.0;320.0;-4.5;35.04;-15.06;6.87;0.0;0.82;3.5;-0.01;33.104;24.786392;120.99741;;293.56188069555793;;;164.51613;;0 / 16;168505;2014-12-10 11:22:25:551
-0.11;0.0;9.7;-0.14;0.0;9.8;0.02;0.0;0.0;0.0;0.0;0.0;320.0;-4.25;34.55;-14.64;6.87;0.0;0.82;3.5;-0.01;33.486;24.786392;120.99741;;293.56188069555793;;;164.51613;;0 / 16;169005;2014-12-10 11:22:26:051
-0.15;-0.03;9.73;-0.14;0.0;9.8;0.0;-0.03;0.02;0.0;0.0;0.0;320.0;-3.66;33.78;-13.32;7.02;0.0;0.82;3.5;-0.01;33.195;24.786392;120.99741;;293.56188069555793;;;164.51613;;0 / 16;169505;2014-12-10 11:22:26:551
-0.14;0.0;9.68;-0.14;0.0;9.8;0.0;0.0;-0.02;0.0;0.0;0.0;320.0;-4.31;34.73;-14.21;6.84;0.0;0.82;3.5;-0.01;32.814;24.786392;120.99741;;293.56188069555793;;;164.51613;;0 / 16;170005;2014-12-10 11:22:27:051
-0.17;0.0;9.68;-0.14;0.0;9.8;-0.02;0.0;-0.02;0.0;0.0;0.0;320.0;-4.5;33.23;-13.5;7.23;0.0;0.82;3.5;-0.01;33.361;24.786392;120.99741;;293.56188069555793;;;164.51613;;0 / 15;170510;2014-12-10 11:22:27:556
-0.12;0.0;9.69;-0.14;0.0;9.8;0.01;0.0;0.0;0.0;0.0;0.0;320.0;-4.56;34.07;-14.7;8.72;0.0;0.82;3.5;-0.01;33.58;24.786392;120.99741;;293.56188069555793;;;164.51613;;0 / 15;171004;2014-12-10 11:22:28:050
-0.13;0.01;9.69;-0.14;0.0;9.8;0.0;0.0;0.0;0.0;0.0;0.0;320.0;-5.33;35.16;-14.52;8.47;0.0;0.82;3.5;-0.01;33.012;24.786392;120.99741;;293.56188069555793;;;164.51613;;0 / 16;171505;2014-12-10 11:22:28:551
-0.18;-0.03;9.71;-0.14;0.0;9.8;-0.03;-0.03;0.0;0.0;0.0;0.0;320.0;-5.04;33.18;-13.74;8.95;0.0;0.82;3.5;-0.01;33.236;24.786392;120.99741;;293.56188069555793;;;164.51613;;0 / 16;172005;2014-12-10 11:22:29:051
-0.15;0.01;9.7;-0.14;0.0;9.8;-0.01;0.01;0.0;0.0;0.0;0.0;320.0;-4.08;34.8;-13.86;6.84;0.0;0.82;3.5;-0.01;33.555;24.786392;120.99741;;293.56188069555793;;;164.51613;;0 / 16;172505;2014-12-10 11:22:29:551
-0.15;-0.01;9.7;-0.14;0.0;9.8;-0.01;-0.01;0.0;0.0;0.0;0.0;320.0;-3.54;35.21;-13.92;6.84;0.0;0.82;3.5;-0.01;33.572;24.786392;120.99741;;293.56188069555793;;;164.51613;;0 / 16;173005;2014-12-10 11:22:30:051
-0.12;0.01;9.7;-0.14;0.0;9.8;0.01;0.01;0.0;0.0;0.0;0.0;320.0;-5.4;34.55;-14.52;8.47;0.0;0.82;3.5;-0.01;33.291;24.786392;120.99741;;293.56188069555793;;;164.51613;;0 / 16;173505;2014-12-10 11:22:30:551
-0.13;0.0;9.69;-0.14;0.0;9.8;0.0;0.0;-0.01;0.01;0.0;0.0;320.0;-4.62;33.66;-12.96;8.67;0.0;0.82;3.5;-0.01;33.088;24.786392;120.99741;;293.56188069555793;;;164.51613;;0 / 16;174005;2014-12-10 11:22:31:051
-0.13;0.0;9.71;-0.14;0.0;9.8;0.0;0.0;0.0;0.0;0.0;0.0;320.0;-5.28;35.39;-14.21;8.45;0.0;0.82;3.5;-0.01;33.735;24.786392;120.99741;;293.56188069555793;;;164.51613;;0 / 16;174505;2014-12-10 11:22:31:551
-0.13;0.01;9.7;-0.14;0.0;9.8;0.0;0.0;0.0;0.0;0.0;0.0;320.0;-4.56;34.98;-15.06;8.47;0.0;0.82;3.5;-0.01;33.35;24.786392;120.99741;;293.56188069555793;;;164.51613;;0 / 16;175006;2014-12-10 11:22:32:052
-0.13;0.0;9.7;-0.14;0.0;9.8;0.0;0.0;0.0;0.0;0.0;0.0;320.0;-4.85;33.36;-13.74;8.95;0.0;0.82;3.5;-0.01;33.018;24.786392;120.99741;;293.56188069555793;;;164.51613;;0 / 16;175504;2014-12-10 11:22:32:550
-0.1;0.03;9.71;-0.14;0.0;9.8;0.03;0.02;0.01;0.0;0.0;0.0;320.0;-4.19;34.43;-15.24;7.07;0.0;0.82;3.5;-0.01;33.019;24.786392;120.99741;;293.56188069555793;;;164.51613;;0 / 16;176004;2014-12-10 11:22:33:050
-0.16;0.0;9.69;-0.14;0.0;9.8;-0.02;-0.01;0.0;0.0;0.01;0.0;320.0;-4.19;34.07;-13.74;7.04;0.0;0.82;3.5;-0.01;33.094;24.786392;120.99741;;293.56188069555793;;;164.51613;;0 / 16;176505;2014-12-10 11:22:33:551
-0.13;0.01;9.7;-0.14;0.0;9.8;0.0;0.0;0.0;0.0;0.0;0.0;320.0;-4.92;33.41;-14.28;8.95;0.0;0.82;3.5;-0.01;33.574;24.786392;120.99741;;293.56188069555793;;;164.51613;;0 / 16;177018;2014-12-10 11:22:34:064
-0.11;0.01;9.69;-0.14;0.0;9.8;0.02;0.01;0.0;0.0;0.0;0.0;320.0;-4.02;35.16;-14.58;6.87;0.0;0.82;3.5;-0.01;33.556;24.786392;120.99741;;293.56188069555793;;;164.51613;;0 / 15;177505;2014-12-10 11:22:34:551
-0.12;0.03;9.71;-0.14;0.0;9.8;0.01;0.03;0.01;0.0;0.0;0.0;320.0;-5.58;34.38;-14.21;10.33;0.0;0.82;3.5;-0.01;33.55;24.786392;120.99741;;293.56188069555793;;;164.51613;;0 / 15;178005;2014-12-10 11:22:35:051
-0.12;0.0;9.69;-0.14;0.0;9.8;0.0;0.0;0.0;0.0;0.0;0.0;320.0;-4.56;34.43;-14.21;8.69;0.0;0.82;3.5;-0.01;33.628;24.786392;120.99741;;293.56188069555793;;;164.51613;;0 / 14;178505;2014-12-10 11:22:35:551
-0.14;0.01;9.69;-0.14;0.0;9.8;0.0;0.0;0.0;0.0;0.0;0.0;320.0;-4.73;33.71;-13.67;8.69;0.0;0.82;3.5;-0.01;33.13;24.786392;120.99741;;293.56188069555793;;;164.51613;;0 / 14;179005;2014-12-10 11:22:36:051
-0.13;0.0;9.7;-0.14;0.0;9.8;0.01;0.0;0.0;0.0;0.0;0.0;320.0;-4.79;34.14;-15.36;8.72;0.0;0.82;3.5;-0.01;33.104;24.786392;120.99741;;293.56188069555793;;;164.51613;;0 / 16;179504;2014-12-10 11:22:36:550
-0.15;-0.02;9.72;-0.14;0.0;9.8;-0.01;-0.02;0.01;0.0;0.0;0.0;320.0;-4.14;33.66;-13.32;7.02;0.0;0.82;3.5;-0.01;33.224;24.786392;120.99741;;293.56188069555793;;;164.51613;;0 / 16;180005;2014-12-10 11:22:37:051
-0.11;0.06;9.72;-0.14;0.0;9.8;0.03;0.05;0.01;0.0;0.0;0.0;320.0;-4.19;36.05;-15.06;6.68;0.0;0.82;3.5;-0.01;33.758;24.786392;120.99741;;293.56188069555793;;;164.51613;;0 / 16;180505;2014-12-10 11:22:37:551
-0.14;0.0;9.68;-0.14;0.0;9.8;-0.01;0.0;-0.01;0.0;0.0;0.0;320.0;-4.92;34.86;-14.21;8.45;0.0;0.82;3.5;-0.01;33.296;24.786392;120.99741;;293.56188069555793;;;164.51613;;0 / 16;181005;2014-12-10 11:22:38:051
-0.15;0.0;9.69;-0.14;0.0;9.8;-0.02;-0.02;0.0;0.0;0.0;0.0;320.0;-4.62;34.07;-14.1;8.69;0.0;0.82;3.5;-0.01;33.712;24.786392;120.99741;;293.56188069555793;;;164.51613;;0 / 16;181505;2014-12-10 11:22:38:551
-0.16;0.0;9.69;-0.14;0.0;9.8;0.0;-0.02;-0.02;0.0;0.0;0.0;320.0;-3.24;35.16;-14.88;5.25;0.0;0.82;3.5;-0.01;33.615;24.786392;120.99741;;293.56188069555793;;;164.51613;;0 / 16;182005;2014-12-10 11:22:39:051
-0.14;0.01;9.7;-0.14;0.0;9.8;0.0;-0.02;0.01;0.0;0.0;0.0;320.0;-4.73;33.41;-13.86;8.95;0.0;0.82;3.5;-0.01;33.709;24.786392;120.99741;;293.56188069555793;;;164.51613;;0 / 15;182505;2014-12-10 11:22:39:551
-0.15;-0.02;9.67;-0.14;0.0;9.8;0.0;0.02;0.0;0.0;0.01;0.0;320.0;-4.08;33.96;-14.52;7.07;0.0;0.82;3.5;-0.01;33.756;24.786392;120.99741;;293.56188069555793;;;164.51613;;0 / 15;183005;2014-12-10 11:22:40:051
-0.12;0.02;9.7;-0.14;0.0;9.8;0.02;0.01;0.0;0.0;0.0;0.0;320.0;-3.3;34.02;-13.32;5.35;0.0;0.82;3.5;-0.01;35.077;24.786392;120.99741;;293.56188069555793;;;164.51613;;0 / 15;183505;2014-12-10 11:22:40:551
-0.11;0.0;9.69;-0.14;0.0;9.8;0.02;0.0;0.0;0.0;0.0;0.0;320.0;-4.5;34.68;-14.4;6.84;0.0;0.82;3.5;-0.01;33.492;24.786392;120.99741;;293.56188069555793;;;164.51613;;0 / 15;184005;2014-12-10 11:22:41:051
-0.12;0.03;9.71;-0.14;0.0;9.8;0.01;0.02;0.01;0.0;0.0;0.0;320.0;-4.25;33.18;-13.74;7.25;0.0;0.82;3.5;-0.01;33.147;24.786392;120.99741;;293.56188069555793;;;164.51613;;0 / 15;184506;2014-12-10 11:22:41:552
-0.12;0.0;9.71;-0.14;0.0;9.8;0.01;0.0;0.01;0.0;0.0;0.0;320.0;-3.95;33.89;-13.98;7.04;0.0;0.82;3.5;-0.01;33.327;24.786392;120.99741;;293.56188069555793;;;164.51613;;0 / 15;185005;2014-12-10 11:22:42:051
-0.14;0.0;9.68;-0.14;0.0;9.8;0.0;0.0;-0.01;0.0;0.0;0.0;320.0;-4.44;35.28;-14.21;6.84;0.0;0.82;3.5;-0.01;33.189;24.786392;120.99741;;293.56188069555793;;;164.51613;;0 / 16;185504;2014-12-10 11:22:42:550
-0.14;0.01;9.71;-0.14;0.0;9.8;0.0;0.01;0.01;0.0;0.0;0.0;320.0;-3.95;33.71;-13.14;7.02;0.0;0.82;3.5;-0.01;32.854;24.786392;120.99741;;293.56188069555793;;;164.51613;;0 / 16;186005;2014-12-10 11:22:43:051
-0.14;-0.01;9.71;-0.14;0.0;9.8;0.0;-0.02;0.01;0.0;0.0;0.0;320.0;-4.08;34.5;-13.74;6.84;0.0;0.82;3.5;-0.01;32.999;24.786392;120.99741;;293.56188069555793;;;164.51613;;0 / 16;186505;2014-12-10 11:22:43:551
-0.12;0.01;9.72;-0.14;0.0;9.8;0.01;0.0;0.0;0.0;0.0;0.0;320.0;-4.02;34.98;-14.28;6.84;0.0;0.82;3.5;-0.01;33.058;24.786392;120.99741;;293.56188069555793;;;164.51613;;0 / 16;187005;2014-12-10 11:22:44:051
-0.15;0.01;9.7;-0.14;0.0;9.8;-0.01;0.01;0.0;0.0;0.0;0.0;320.0;-4.08;33.48;-13.98;7.25;0.0;0.82;3.5;-0.01;33.198;24.786392;120.99741;;293.56188069555793;;;164.51613;;0 / 16;187512;2014-12-10 11:22:44:558
-0.13;0.04;9.7;-0.14;0.0;9.8;0.01;0.03;0.0;0.0;0.0;0.0;320.0;-3.9;35.7;-14.21;6.65;0.0;0.82;3.5;-0.01;33.496;24.786392;120.99741;;293.56188069555793;;;164.51613;;0 / 16;188004;2014-12-10 11:22:45:050
-0.14;0.04;9.65;-0.14;0.0;9.8;0.0;0.03;-0.02;0.0;0.0;0.0;320.0;-4.98;33.89;-13.5;8.67;0.0;0.82;3.5;-0.01;32.938;24.786392;120.99741;;293.56188069555793;;;164.51613;;0 / 15;188505;2014-12-10 11:22:45:551
-0.17;-0.01;9.69;-0.14;0.0;9.8;-0.02;-0.01;-0.01;0.0;0.0;0.0;320.0;-4.73;33.78;-13.92;8.69;0.0;0.82;3.5;-0.01;32.89;24.786392;120.99741;;293.56188069555793;;;164.51613;;0 / 15;189007;2014-12-10 11:22:46:053
-0.08;0.01;9.76;-0.14;0.0;9.8;0.05;0.02;0.05;0.0;0.0;0.0;320.0;-4.44;35.09;-13.74;6.84;0.0;0.82;3.5;-0.01;34.022;24.786392;120.99741;;293.56188069555793;;;164.51613;;0 / 15;189511;2014-12-10 11:22:46:557
-0.14;0.02;9.81;-0.14;0.0;9.8;0.0;0.02;0.09;0.0;0.0;0.0;320.0;-5.33;34.2;-13.74;8.69;0.0;0.82;3.5;-0.01;33.046;24.786392;120.99741;;293.56188069555793;;;164.51613;;0 / 15;190004;2014-12-10 11:22:47:050
-0.12;0.01;9.65;-0.14;0.0;9.8;0.01;0.0;-0.03;0.0;0.0;0.0;320.0;-4.31;34.38;-13.67;7.04;0.0;0.82;3.5;-0.01;33.566;24.786392;120.99741;;293.56188069555793;;;164.51613;;0 / 15;190505;2014-12-10 11:22:47:551
-0.09;0.03;9.7;-0.14;0.0;9.8;0.03;0.02;0.0;0.0;0.0;0.0;320.0;-4.85;34.68;-14.1;8.45;0.0;0.82;3.5;-0.01;33.506;24.786392;120.99741;;293.56188069555793;;;164.51613;;0 / 15;191005;2014-12-10 11:22:48:051
-0.11;0.05;9.7;-0.14;0.0;9.8;0.02;0.03;0.0;0.0;0.0;0.0;320.0;-5.58;34.86;-14.64;10.07;0.0;0.82;3.5;-0.01;33.005;24.786392;120.99741;;293.56188069555793;;;164.51613;;0 / 16;191506;2014-12-10 11:22:48:552
-0.11;0.02;9.68;-0.14;0.0;9.8;0.02;0.01;-0.01;0.0;0.0;0.0;320.0;-4.5;34.68;-12.96;6.82;0.0;0.82;3.5;-0.01;33.638;24.786392;120.99741;;293.56188069555793;;;164.51613;;0 / 16;192004;2014-12-10 11:22:49:050
-0.11;0.0;9.69;-0.14;0.0;9.8;0.02;0.0;0.0;0.0;-0.01;0.0;320.0;-4.73;34.43;-14.82;8.72;0.0;0.82;3.5;-0.01;33.034;24.786392;120.99741;;293.56188069555793;;;164.51613;;0 / 15;192504;2014-12-10 11:22:49:550
-0.15;0.0;9.69;-0.14;0.0;9.8;-0.01;0.0;0.0;0.0;0.0;0.0;320.0;-5.28;33.96;-14.28;8.69;0.0;0.82;3.5;-0.01;36.051;24.786392;120.99741;;293.56188069555793;;;164.51613;;0 / 15;193008;2014-12-10 11:22:50:054
-0.16;-0.01;9.7;-0.14;0.0;9.8;-0.02;-0.02;0.0;0.0;0.01;0.0;320.0;-4.08;34.8;-13.67;6.84;0.0;0.82;3.5;-0.01;33.179;24.786392;120.99741;;293.56188069555793;;;164.51613;;0 / 16;193505;2014-12-10 11:22:50:551
-0.15;0.01;9.71;-0.14;0.0;9.8;-0.01;0.01;0.0;0.0;0.0;0.0;320.0;-4.85;35.21;-15.0;8.47;0.0;0.82;3.5;-0.01;33.189;24.786392;120.99741;;293.56188069555793;;;164.51613;;0 / 16;194004;2014-12-10 11:22:51:050
-0.15;0.01;9.68;-0.14;0.0;9.8;0.01;0.0;0.0;0.0;0.0;0.0;320.0;-4.25;33.78;-14.34;7.04;0.0;0.82;3.5;-0.01;33.061;24.786392;120.99741;;293.56188069555793;;;164.51613;;0 / 16;194504;2014-12-10 11:22:51:550
-0.11;0.01;9.69;-0.14;0.0;9.8;0.02;0.01;0.0;0.0;0.0;0.0;320.0;-4.44;34.25;-13.62;7.04;0.0;0.82;3.5;-0.01;33.284;24.786392;120.99741;;293.56188069555793;;;164.51613;;0 / 16;195005;2014-12-10 11:22:52:051
-0.17;0.0;9.68;-0.14;0.0;9.8;0.0;0.0;0.0;0.0;0.0;0.0;320.0;-3.84;35.04;-14.52;6.87;0.0;0.82;3.5;-0.01;33.367;24.786392;120.99741;;293.56188069555793;;;164.51613;;0 / 16;195505;2014-12-10 11:22:52:551
-0.14;0.0;9.71;-0.14;0.0;9.8;0.0;0.0;0.01;0.0;0.0;0.0;320.0;-4.67;32.82;-14.1;8.95;0.0;0.82;3.5;-0.01;32.963;24.786392;120.99741;;293.56188069555793;;;164.51613;;0 / 16;196005;2014-12-10 11:22:53:051
-0.17;-0.01;9.68;-0.14;0.0;9.8;-0.03;-0.01;0.0;0.0;0.0;0.0;320.0;-5.04;34.55;-14.21;8.45;0.0;0.82;3.5;-0.01;33.498;24.786392;120.99741;;293.56188069555793;;;164.51613;;0 / 15;196505;2014-12-10 11:22:53:551
-0.16;-0.01;9.7;-0.14;0.0;9.8;0.01;0.04;0.03;0.0;0.0;0.0;320.0;-4.08;34.8;-14.21;6.84;0.0;0.82;3.5;-0.01;33.147;24.786392;120.99741;;293.56188069555793;;;164.51613;;0 / 15;197005;2014-12-10 11:22:54:051
-0.17;0.0;9.65;-0.14;0.0;9.8;-0.02;-0.01;-0.05;0.0;0.0;0.0;320.0;-5.1;33.23;-14.4;8.95;0.0;0.82;3.5;-0.01;32.956;24.786392;120.99741;;293.56188069555793;;;164.51613;;0 / 16;197505;2014-12-10 11:22:54:551
-0.21;-0.06;9.44;-0.14;0.0;9.8;-0.07;-0.06;-0.2;0.0;0.0;0.0;320.0;-4.38;34.43;-14.21;7.04;0.0;0.82;3.5;-0.01;34.675;24.786392;120.99741;;293.56188069555793;;;164.51613;;0 / 16;198005;2014-12-10 11:22:55:051
-0.21;-0.09;9.7;-0.14;0.0;9.8;-0.06;-0.08;0.0;0.0;0.01;0.0;320.0;-5.04;33.71;-14.28;8.69;0.0;0.82;3.5;1010.06;33.043;24.786392;120.99741;;293.56188069555793;;;164.51613;;0 / 16;198505;2014-12-10 11:22:55:551
-0.13;0.0;9.68;-0.14;0.0;9.8;0.0;0.0;0.0;0.0;0.0;0.0;320.0;-5.58;33.48;-14.58;10.66;0.0;0.82;3.5;-0.01;33.09;24.786392;120.99741;;293.56188069555793;;;164.51613;;0 / 16;199016;2014-12-10 11:22:56:062
-0.12;0.0;9.67;-0.14;0.0;9.8;0.01;0.0;-0.04;0.0;0.0;0.0;320.0;-4.02;34.68;-13.67;6.84;0.0;0.82;3.5;-0.01;33.039;24.786392;120.99741;;293.56188069555793;;;164.51613;;0 / 16;199505;2014-12-10 11:22:56:551
-0.05;0.07;9.73;-0.14;0.0;9.8;0.09;0.09;0.03;0.0;-0.01;0.0;320.0;-4.56;33.96;-13.62;8.69;0.0;0.82;3.5;-0.01;34.06;24.786392;120.99741;;293.56188069555793;;;164.51613;;0 / 16;200005;2014-12-10 11:22:57:051
-0.2;-0.02;9.69;-0.14;0.0;9.8;-0.06;-0.04;0.0;0.0;0.0;0.0;320.0;-4.14;34.62;-13.79;6.84;0.0;0.82;3.5;-0.01;33.755;24.786392;120.99741;;293.56188069555793;;;164.51613;;0 / 16;200505;2014-12-10 11:22:57:551
-0.19;-0.01;9.67;-0.14;0.0;9.8;0.0;-0.01;0.01;0.0;0.0;0.0;320.0;-3.72;34.38;-13.32;7.02;0.0;0.82;3.5;-0.01;33.28;24.786392;120.99741;;293.56188069555793;;;164.51613;;0 / 16;201005;2014-12-10 11:22:58:051
-0.16;-0.01;9.71;-0.14;0.0;9.8;0.05;0.05;0.0;0.0;0.0;0.0;320.0;-4.5;34.86;-14.88;6.87;0.0;0.82;3.5;-0.01;33.559;24.786392;120.99741;;293.56188069555793;;;164.51613;;0 / 16;201505;2014-12-10 11:22:58:551
-0.09;0.03;9.75;-0.14;0.0;9.8;-0.09;-0.07;-0.08;0.0;0.01;0.0;320.0;-3.72;34.8;-13.67;6.84;0.0;0.82;3.5;-0.01;33.2;24.786392;120.99741;;293.56188069555793;;;164.51613;;0 / 16;202005;2014-12-10 11:22:59:051
-0.09;0.08;9.7;-0.14;0.0;9.8;0.0;0.0;0.0;0.0;0.0;0.0;320.0;-4.79;34.14;-15.0;8.72;0.0;0.82;3.5;-0.01;33.062;24.786392;120.99741;;293.56188069555793;;;164.51613;;0 / 16;202512;2014-12-10 11:22:59:558
-0.19;-0.04;9.7;-0.15;0.0;9.8;-0.04;-0.05;0.0;0.0;0.01;0.0;320.0;-4.98;34.91;-14.64;8.5;0.0;0.88;3.5;-0.01;33.011;24.786392;120.99741;;293.56188069555793;;;164.51613;;0 / 16;203006;2014-12-10 11:23:00:052
-0.14;0.01;9.71;-0.15;0.0;9.8;0.0;0.01;0.01;0.0;0.0;0.0;320.0;-4.56;34.02;-13.5;8.69;0.0;0.88;3.5;-0.01;33.477;24.786392;120.99741;;293.56188069555793;;;164.51613;;0 / 16;203504;2014-12-10 11:23:00:550
-0.11;0.03;9.7;-0.15;0.0;9.8;0.02;0.02;0.0;0.0;0.0;0.0;320.0;-4.44;35.16;-15.06;6.89;0.0;0.88;3.5;-0.01;33.362;24.786392;120.99741;;293.56188069555793;;;164.51613;;0 / 16;204005;2014-12-10 11:23:01:051
-0.13;0.02;9.68;-0.15;0.0;9.8;0.0;0.01;0.0;0.0;0.0;0.0;320.0;-4.19;34.07;-13.5;7.04;0.0;0.88;3.5;-0.01;32.795;24.786392;120.99741;;293.56188069555793;;;164.51613;;0 / 14;204505;2014-12-10 11:23:01:551
-0.13;0.02;9.71;-0.15;0.0;9.8;0.0;0.01;0.0;0.0;0.0;0.0;320.0;-4.62;34.55;-13.02;8.45;0.0;0.88;3.5;-0.01;33.008;24.786392;120.99741;;293.56188069555793;;;164.51613;;0 / 14;205005;2014-12-10 11:23:02:051
-0.15;0.01;9.69;-0.14;0.0;9.8;-0.01;0.0;0.01;0.0;0.0;0.0;320.0;-4.38;34.5;-14.4;6.87;0.0;0.88;3.5;-0.01;36.536;24.786392;120.99741;;293.56188069555793;;;164.51613;;0 / 14;205505;2014-12-10 11:23:02:551
-0.13;0.0;9.69;-0.14;0.0;9.8;0.0;0.0;0.0;0.0;0.0;0.0;320.0;-4.44;32.88;-14.58;7.28;0.0;0.82;3.5;-0.01;35.822;24.786392;120.99741;;293.56188069555793;;;164.51613;;0 / 14;206005;2014-12-10 11:23:03:051
-0.12;0.01;9.7;-0.14;0.0;9.8;0.01;0.0;0.01;0.0;0.0;0.0;320.0;-4.73;35.04;-13.74;8.45;0.0;0.82;3.5;-0.01;34.923;24.786392;120.99741;;293.56188069555793;;;164.51613;;0 / 16;206505;2014-12-10 11:23:03:551
-0.15;0.01;9.69;-0.14;0.0;9.8;-0.01;0.0;0.0;0.0;0.0;0.0;320.0;-5.16;34.73;-14.88;8.47;0.0;0.82;3.5;-0.01;34.399;24.786392;120.99741;;293.56188069555793;;;164.51613;;0 / 16;207006;2014-12-10 11:23:04:052
-0.14;0.02;9.7;-0.14;0.0;9.8;0.0;0.0;0.0;0.0;0.01;0.0;320.0;-5.04;33.48;-14.21;8.95;0.0;0.82;3.5;-0.01;33.532;24.786392;120.99741;;293.56188069555793;;;164.51613;;0 / 16;207504;2014-12-10 11:23:04:550
-0.14;0.0;9.7;-0.14;0.0;9.8;-0.01;0.0;0.0;0.0;0.0;0.0;320.0;-3.9;34.43;-14.16;7.04;0.0;0.82;3.5;-0.01;33.306;24.786392;120.99741;;293.56188069555793;;;164.51613;;0 / 16;208005;2014-12-10 11:23:05:051
-0.12;0.0;9.71;-0.14;0.0;9.8;-0.03;-0.01;-0.02;0.0;0.0;0.0;320.0;-4.98;34.55;-14.82;8.47;0.0;0.82;3.5;-0.01;33.447;24.786392;120.99741;;293.56188069555793;;;164.51613;;0 / 16;208505;2014-12-10 11:23:05:551
-0.14;0.02;9.7;-0.14;0.0;9.8;0.01;0.0;0.01;0.0;0.0;0.0;320.0;-5.16;34.55;-14.4;8.45;0.0;0.82;3.5;-0.01;33.06;24.786392;120.99741;;293.56188069555793;;;164.51613;;0 / 16;209005;2014-12-10 11:23:06:051
-0.13;0.01;9.7;-0.14;0.0;9.8;0.01;0.01;0.0;0.0;0.0;0.0;320.0;-3.9;35.09;-14.28;6.84;0.0;0.82;3.5;-0.01;33.079;24.786392;120.99741;;293.56188069555793;;;164.51613;;0 / 15;209506;2014-12-10 11:23:06:552
-0.13;0.0;9.71;-0.14;0.0;9.8;0.0;0.0;0.01;0.0;0.0;0.0;320.0;-4.67;34.8;-14.28;8.45;0.0;0.82;3.5;-0.01;33.971;24.786392;120.99741;;293.56188069555793;;;164.51613;;0 / 15;210005;2014-12-10 11:23:07:051
-0.14;0.0;9.69;-0.14;0.0;9.8;0.0;0.0;0.0;0.0;0.0;0.0;320.0;-4.56;34.62;-13.67;8.45;0.0;0.82;3.5;-0.01;37.412;24.786392;120.99741;;293.56188069555793;;;164.51613;;0 / 14;210505;2014-12-10 11:23:07:551
-0.15;0.0;9.73;-0.14;0.0;9.8;0.0;0.0;0.02;0.0;0.0;0.0;320.0;-4.62;34.55;-13.44;6.82;0.0;0.82;3.5;-0.01;33.36;24.786392;120.99741;;293.56188069555793;;;164.51613;;0 / 14;211010;2014-12-10 11:23:08:056
-0.14;0.0;9.69;-0.14;0.0;9.8;0.0;-0.01;0.0;0.0;0.0;0.0;320.0;-4.98;34.73;-14.7;8.47;0.0;0.82;3.5;-0.01;33.353;24.786392;120.99741;;293.56188069555793;;;164.51613;;0 / 15;211505;2014-12-10 11:23:08:551
-0.12;0.02;9.69;-0.14;0.0;9.8;0.01;0.0;0.0;0.0;0.0;0.0;320.0;-5.1;34.14;-13.44;8.67;0.0;0.82;3.5;-0.01;32.959;24.786392;120.99741;;293.56188069555793;;;164.51613;;0 / 15;212005;2014-12-10 11:23:09:051
-0.12;0.02;9.68;-0.14;0.0;9.8;0.01;0.02;-0.01;0.0;0.0;0.0;320.0;-4.08;34.91;-14.82;6.87;0.0;0.82;3.5;-0.01;41.989;24.786392;120.99741;;293.56188069555793;;;164.51613;;0 / 16;212505;2014-12-10 11:23:09:551
-0.12;0.03;9.72;-0.14;0.0;9.8;0.01;0.02;0.02;0.0;0.0;0.0;320.0;-4.79;34.86;-14.34;8.45;0.0;0.82;3.5;-0.01;34.227;24.786392;120.99741;;293.56188069555793;;;164.51613;;0 / 16;213005;2014-12-10 11:23:10:051
-0.17;-0.01;9.68;-0.14;0.0;9.8;-0.03;-0.02;-0.02;0.0;0.0;0.0;320.0;-4.38;34.02;-13.44;7.02;0.0;0.82;3.5;-0.01;44.896;24.786392;120.99741;;293.56188069555793;;;164.51613;;0 / 16;213504;2014-12-10 11:23:10:550
-0.14;0.0;9.7;-0.14;0.0;9.8;0.0;0.0;0.0;0.0;0.0;0.0;320.0;-4.25;35.21;-15.66;6.89;0.0;0.82;3.5;-0.01;35.165;24.786392;120.99741;;293.56188069555793;;;164.51613;;0 / 16;214004;2014-12-10 11:23:11:050
-0.12;0.02;9.72;-0.14;0.0;9.8;0.02;0.01;0.02;0.0;0.0;0.0;320.0;-4.73;33.89;-13.62;8.69;0.0;0.82;3.5;-0.01;33.655;24.786392;120.99741;;293.56188069555793;;;164.51613;;0 / 15;214504;2014-12-10 11:23:11:550
-0.15;-0.01;9.69;-0.14;0.0;9.8;-0.01;-0.01;-0.01;0.0;0.01;0.0;320.0;-4.73;34.8;-14.34;8.45;0.0;0.82;3.5;-0.01;35.036;24.786392;120.99741;;293.56188069555793;;;164.51613;;0 / 15;215005;2014-12-10 11:23:12:051
-0.13;0.01;9.68;-0.14;0.0;9.8;0.0;0.0;-0.01;0.0;0.0;0.0;320.0;-4.67;35.04;-14.28;8.45;0.0;0.82;3.5;-0.01;33.103;24.786392;120.99741;;293.56188069555793;;;164.51613;;0 / 16;215505;2014-12-10 11:23:12:551
-0.12;0.02;9.69;-0.14;0.0;9.8;0.01;0.01;0.0;0.0;0.0;0.0;320.0;-4.08;33.59;-14.16;7.04;0.0;0.82;3.5;-0.01;33.735;24.786392;120.99741;;293.56188069555793;;;164.51613;;0 / 16;216005;2014-12-10 11:23:13:051
-0.11;0.02;9.71;-0.14;0.0;9.8;0.01;0.01;0.01;0.0;0.0;0.0;320.0;-5.16;35.09;-14.4;8.45;0.0;0.82;3.5;-0.01;33.687;24.786392;120.99741;;293.56188069555793;;;164.51613;;0 / 15;216505;2014-12-10 11:23:13:551
-0.13;0.0;9.7;-0.14;0.0;9.8;0.01;0.0;0.0;0.0;0.0;0.0;320.0;-3.95;33.96;-13.32;7.02;0.0;0.82;3.5;-0.01;33.424;24.786392;120.99741;;293.56188069555793;;;164.51613;;0 / 15;217005;2014-12-10 11:23:14:051
-0.13;0.03;9.71;-0.14;0.0;9.8;0.0;0.03;0.0;0.0;0.0;0.0;320.0;-4.38;33.71;-13.67;7.04;0.0;0.82;3.5;-0.01;33.811;24.786392;120.99741;;293.56188069555793;;;164.51613;;0 / 15;217505;2014-12-10 11:23:14:551
-0.13;0.0;9.68;-0.14;0.0;9.8;0.0;0.0;-0.01;0.0;0.0;0.0;320.0;-4.98;34.98;-14.58;8.47;0.0;0.82;3.5;-0.01;33.37;24.786392;120.99741;;293.56188069555793;;;164.51613;;0 / 15;218005;2014-12-10 11:23:15:051
-0.13;0.01;9.69;-0.14;0.0;9.8;0.0;0.0;0.0;0.0;0.0;0.0;320.0;-4.19;33.18;-14.04;7.25;0.0;0.82;3.5;-0.01;33.206;24.786392;120.99741;;293.56188069555793;;;164.51613;;0 / 15;218505;2014-12-10 11:23:15:551
-0.13;-0.01;9.7;-0.14;0.0;9.8;-0.01;0.01;0.0;0.0;0.0;0.0;320.0;-4.38;33.96;-14.34;7.04;0.0;0.82;3.5;-0.01;33.709;24.786392;120.99741;;293.56188069555793;;;164.51613;;0 / 15;219005;2014-12-10 11:23:16:051
-0.13;0.04;9.71;-0.14;0.0;9.8;0.01;0.03;0.0;0.0;0.0;0.0;320.0;-3.48;35.09;-14.52;5.25;0.0;0.82;3.5;-0.01;34.21;24.786392;120.99741;;293.56188069555793;;;164.51613;;0 / 16;219505;2014-12-10 11:23:16:551
-0.14;0.02;9.7;-0.14;0.0;9.8;0.0;0.02;0.0;0.0;0.0;0.0;320.0;-4.31;33.96;-13.62;7.04;0.0;0.82;3.5;-0.01;33.841;24.786392;120.99741;;293.56188069555793;;;164.51613;;0 / 16;220004;2014-12-10 11:23:17:050
-0.15;0.0;9.67;-0.14;0.0;9.8;0.0;0.0;-0.02;0.0;-0.01;0.0;320.0;-4.38;34.98;-14.04;6.84;0.0;0.82;3.5;-0.01;33.703;24.786392;120.99741;;293.56188069555793;;;164.51613;;0 / 16;220505;2014-12-10 11:23:17:551
-0.14;-0.01;9.71;-0.14;0.0;9.8;0.0;-0.01;0.01;0.0;0.01;0.0;320.0;-4.62;32.93;-13.92;8.95;0.0;0.82;3.5;-0.01;33.535;24.786392;120.99741;;293.56188069555793;;;164.51613;;0 / 16;221004;2014-12-10 11:23:18:050
-0.16;0.0;9.71;-0.14;0.0;9.8;-0.02;-0.01;0.02;0.0;0.0;0.0;320.0;-4.79;33.41;-14.21;8.95;0.0;0.82;3.5;-0.01;34.091;24.786392;120.99741;;293.56188069555793;;;164.51613;;0 / 15;221505;2014-12-10 11:23:18:551
-0.15;-0.01;9.7;-0.14;0.0;9.8;-0.01;-0.02;0.0;0.0;0.0;0.0;320.0;-4.44;34.86;-14.46;6.84;0.0;0.82;3.5;-0.01;35.892;24.786392;120.99741;;293.56188069555793;;;164.51613;;0 / 15;222008;2014-12-10 11:23:19:054
-0.13;0.0;9.72;-0.14;0.0;9.8;0.01;0.0;0.03;0.0;0.0;0.0;320.0;-4.31;34.02;-13.86;7.04;0.0;0.82;3.5;-0.01;34.352;24.786392;120.99741;;293.56188069555793;;;164.51613;;0 / 14;222505;2014-12-10 11:23:19:551
-0.13;0.01;9.69;-0.14;0.0;9.8;0.01;0.01;0.0;0.0;0.0;0.0;320.0;-4.08;33.41;-13.86;8.95;0.0;0.82;3.5;-0.01;33.298;24.786392;120.99741;;293.56188069555793;;;164.51613;;0 / 14;223005;2014-12-10 11:23:20:051
-0.14;-0.13;9.7;-0.14;0.0;9.8;0.0;-0.11;0.0;-0.01;0.0;0.0;320.0;-4.62;34.86;-13.62;8.45;0.0;0.82;3.5;-0.01;34.133;24.786392;120.99741;;293.56188069555793;;;164.51613;;0 / 16;223504;2014-12-10 11:23:20:550
-0.11;0.03;9.7;-0.14;0.0;9.8;0.02;0.03;0.0;0.0;0.0;0.0;320.0;-5.16;33.84;-15.17;8.72;0.0;0.82;3.5;-0.01;34.019;24.786392;120.99741;;293.56188069555793;;;164.51613;;0 / 16;224005;2014-12-10 11:23:21:051
-0.13;0.0;9.66;-0.14;0.0;9.8;0.0;0.0;-0.05;0.0;0.0;0.0;320.0;-4.19;34.68;-13.5;6.82;0.0;0.82;3.5;-0.01;33.643;24.786392;120.99741;;293.56188069555793;;;164.51613;;0 / 16;224505;2014-12-10 11:23:21:551
-0.23;-0.06;9.69;-0.14;0.0;9.8;0.05;0.04;0.02;0.0;0.0;0.0;320.0;-5.1;33.54;-13.74;8.69;0.0;0.82;3.5;-0.01;33.111;24.786392;120.99741;;293.56188069555793;;;164.51613;;0 / 16;225004;2014-12-10 11:23:22:050
-0.15;0.0;9.69;-0.14;0.0;9.8;-0.01;0.0;0.01;0.0;0.0;0.0;320.0;-4.56;34.38;-14.75;8.72;0.0;0.82;3.5;-0.01;33.972;24.786392;120.99741;;293.56188069555793;;;164.51613;;0 / 16;225505;2014-12-10 11:23:22:551
-0.08;0.05;9.72;-0.14;0.0;9.8;0.01;0.0;-0.01;0.0;0.0;0.0;320.0;-4.08;34.07;-13.08;7.02;0.0;0.82;3.5;-0.01;43.54;24.786392;120.99741;;293.56188069555793;;;164.51613;;0 / 16;226005;2014-12-10 11:23:23:051
-0.11;0.04;9.69;-0.14;0.0;9.8;0.0;-0.01;0.0;0.0;0.0;0.0;320.0;-4.31;34.43;-13.74;7.04;0.0;0.82;3.5;-0.01;33.345;24.786392;120.99741;;293.56188069555793;;;164.51613;;0 / 16;226505;2014-12-10 11:23:23:551
-0.15;0.01;9.69;-0.14;0.0;9.8;-0.06;-0.06;-0.01;0.0;0.0;0.0;320.0;-4.14;35.04;-14.34;6.84;0.0;0.82;3.5;-0.01;55.667;24.786392;120.99741;;293.56188069555793;;;164.51613;;0 / 16;227005;2014-12-10 11:23:24:051
-0.18;-0.04;9.7;-0.14;0.0;9.8;-0.03;-0.05;0.0;0.0;0.0;0.0;320.0;-3.78;33.36;-13.56;7.25;0.0;0.82;3.5;-0.01;33.646;24.786392;120.99741;;293.56188069555793;;;164.51613;;0 / 16;227505;2014-12-10 11:23:24:551
-0.15;-0.01;9.7;-0.14;0.0;9.8;-0.01;-0.02;0.0;0.0;0.0;0.0;320.0;-4.79;35.04;-14.21;8.45;0.0;0.82;3.5;-0.01;33.688;24.786392;120.99741;;293.56188069555793;;;164.51613;;0 / 16;228005;2014-12-10 11:23:25:051
-0.16;0.0;9.68;-0.14;0.0;9.8;-0.01;0.0;-0.01;0.0;0.0;0.0;320.0;-4.31;33.84;-14.21;7.04;0.0;0.82;3.5;-0.01;32.938;24.786392;120.99741;;293.56188069555793;;;164.51613;;0 / 16;228505;2014-12-10 11:23:25:551
-0.17;-0.03;9.68;-0.14;0.0;9.8;-0.02;-0.04;0.0;0.0;0.0;0.0;320.0;-4.56;34.32;-13.32;7.02;0.0;0.82;3.5;-0.01;33.268;24.786392;120.99741;;293.56188069555793;;;164.51613;;0 / 16;229005;2014-12-10 11:23:26:051
-0.15;0.0;9.66;-0.14;0.0;9.8;0.0;-0.01;-0.02;0.0;0.0;0.0;320.0;-4.19;34.07;-14.75;7.07;0.0;0.82;3.5;-0.01;33.785;24.786392;120.99741;;293.56188069555793;;;164.51613;;0 / 16;229506;2014-12-10 11:23:26:552
-0.14;0.0;9.71;-0.14;0.0;9.8;0.0;0.0;0.01;0.0;0.0;0.0;320.0;-4.85;32.57;-13.74;8.95;0.0;0.82;3.5;-0.01;40.725;24.786392;120.99741;;293.56188069555793;;;164.51613;;0 / 16;230004;2014-12-10 11:23:27:050
-0.14;0.01;9.7;-0.14;0.0;9.8;0.0;0.0;0.0;0.0;0.0;0.0;320.0;-4.25;35.04;-14.34;6.84;0.0;0.82;3.5;-0.01;33.525;24.786392;120.99741;;293.56188069555793;;;164.51613;;0 / 16;230505;2014-12-10 11:23:27:551
-0.1;0.0;9.78;-0.14;0.0;9.8;0.03;0.0;0.06;0.0;0.0;0.0;320.0;-4.56;33.66;-13.44;8.67;0.0;0.82;3.5;-0.01;33.469;24.786392;120.99741;;293.56188069555793;;;164.51613;;0 / 16;231004;2014-12-10 11:23:28:050
-0.14;-0.01;9.71;-0.14;0.0;9.8;0.0;-0.02;0.0;0.0;0.0;0.0;320.0;-4.44;33.3;-14.04;7.25;0.0;0.82;3.5;-0.01;33.366;24.786392;120.99741;;293.56188069555793;;;164.51613;;0 / 14;231505;2014-12-10 11:23:28:551
-0.14;0.0;9.69;-0.14;0.0;9.8;0.0;0.0;0.0;-0.01;0.0;0.0;320.0;-4.56;34.73;-13.44;8.43;0.0;0.82;3.5;-0.01;33.238;24.786392;120.99741;;293.56188069555793;;;164.51613;;0 / 14;232006;2014-12-10 11:23:29:052
-0.14;0.01;9.68;-0.14;0.0;9.8;0.0;0.0;0.0;0.0;0.0;0.0;320.0;-4.08;34.07;-14.04;7.04;0.0;0.82;3.5;-0.01;33.138;24.786392;120.99741;;293.56188069555793;;;164.51613;;0 / 15;232505;2014-12-10 11:23:29:551
-0.12;0.03;9.69;-0.14;0.0;9.8;0.01;0.02;0.0;0.0;0.0;0.0;320.0;-4.62;34.07;-14.1;8.69;0.0;0.82;3.5;-0.01;32.77;24.786392;120.99741;;293.56188069555793;;;164.51613;;0 / 15;233005;2014-12-10 11:23:30:051
-0.14;0.0;9.7;-0.14;0.0;9.8;0.0;0.0;0.0;0.0;0.0;0.0;320.0;-4.38;35.34;-13.86;6.84;0.0;0.82;3.5;-0.01;33.292;24.786392;120.99741;;293.56188069555793;;;164.51613;;0 / 16;233504;2014-12-10 11:23:30:550
-0.16;0.0;9.72;-0.14;0.0;9.8;-0.01;-0.01;0.02;0.0;0.0;0.0;320.0;-4.31;33.12;-14.21;7.25;0.0;0.82;3.5;-0.01;33.093;24.786392;120.99741;;293.56188069555793;;;164.51613;;0 / 16;234005;2014-12-10 11:23:31:051
-0.14;0.02;9.68;-0.14;0.0;9.8;0.0;0.0;0.0;0.0;0.0;0.0;320.0;-3.72;34.68;-13.62;6.84;0.0;0.82;3.5;-0.01;33.225;24.786392;120.99741;;293.56188069555793;;;164.51613;;0 / 16;234505;2014-12-10 11:23:31:551
-0.13;0.01;9.7;-0.14;0.0;9.8;0.01;0.0;0.0;0.0;0.0;0.0;320.0;-4.67;33.59;-13.98;8.69;0.0;0.82;3.5;-0.01;33.075;24.786392;120.99741;;293.56188069555793;;;164.51613;;0 / 16;235005;2014-12-10 11:23:32:051
-0.13;0.03;9.69;-0.14;0.0;9.8;0.01;0.02;-0.01;0.0;0.0;0.0;320.0;-4.62;33.96;-14.46;8.69;0.0;0.82;3.5;-0.01;33.171;24.786392;120.99741;;293.56188069555793;;;164.51613;;0 / 16;235504;2014-12-10 11:23:32:550
-0.14;0.01;9.69;-0.14;0.0;9.8;0.0;0.0;0.0;0.0;0.0;0.0;320.0;-4.5;35.16;-13.79;6.84;0.0;0.82;3.5;-0.01;33.015;24.786392;120.99741;;293.56188069555793;;;164.51613;;0 / 16;236008;2014-12-10 11:23:33:054
-0.09;0.02;9.7;-0.14;0.0;9.8;0.04;0.01;0.01;0.0;0.0;0.0;320.0;-3.48;34.32;-13.74;5.38;0.0;0.82;3.5;-0.01;33.266;24.786392;120.99741;;293.56188069555793;;;164.51613;;0 / 15;236504;2014-12-10 11:23:33:550
-0.11;0.03;9.68;-0.14;0.0;9.8;0.0;0.0;0.02;0.0;0.0;0.0;320.0;-4.85;34.2;-15.06;8.72;0.0;0.82;3.5;-0.01;33.366;24.786392;120.99741;;293.56188069555793;;;164.51613;;0 / 15;237006;2014-12-10 11:23:34:052
-0.12;0.03;9.7;-0.14;0.0;9.8;0.01;0.01;0.0;0.0;0.0;0.0;320.0;-4.38;34.55;-13.2;6.82;0.0;0.82;3.5;-0.01;33.362;24.786392;120.99741;;293.56188069555793;;;164.51613;;0 / 15;237505;2014-12-10 11:23:34:551
-0.13;0.01;9.69;-0.14;0.0;9.8;0.0;0.0;0.0;0.0;0.0;0.0;320.0;-4.73;34.02;-14.1;8.69;0.0;0.82;3.5;-0.01;33.552;24.786392;120.99741;;293.56188069555793;;;164.51613;;0 / 15;238005;2014-12-10 11:23:35:051
-0.13;0.01;9.7;-0.14;0.0;9.8;0.01;0.0;0.0;0.0;0.0;0.0;320.0;-3.6;34.98;-13.56;6.84;0.0;0.82;3.5;-0.01;33.18;24.786392;120.99741;;293.56188069555793;;;164.51613;;0 / 15;238506;2014-12-10 11:23:35:552
-0.14;0.0;9.7;-0.14;0.0;9.8;0.0;0.0;0.0;0.0;0.0;0.0;320.0;-4.5;33.96;-14.58;7.07;0.0;0.82;3.5;-0.01;33.335;24.786392;120.99741;;293.56188069555793;;;164.51613;;0 / 15;239005;2014-12-10 11:23:36:051
-0.11;0.02;9.68;-0.14;0.0;9.8;0.02;0.02;-0.01;0.0;0.0;0.0;320.0;-4.14;35.09;-15.0;6.87;0.0;0.82;3.5;-0.01;33.353;24.786392;120.99741;;293.56188069555793;;;164.51613;;0 / 16;239505;2014-12-10 11:23:36:551
-0.14;0.02;9.69;-0.14;0.01;9.8;0.0;0.0;0.0;0.0;0.0;0.0;320.0;-4.25;33.78;-13.32;7.02;0.0;0.82;3.5;-0.01;33.365;24.786392;120.99741;;293.56188069555793;;;164.51613;;0 / 16;240005;2014-12-10 11:23:37:051
-0.13;0.0;9.68;-0.14;0.01;9.8;0.0;0.0;0.0;0.0;0.01;0.0;320.0;-4.25;34.5;-13.98;6.84;-0.06;0.82;3.5;-0.01;33.871;24.786392;120.99741;;293.56188069555793;;;164.51613;;0 / 15;240505;2014-12-10 11:23:37:551
-0.16;0.0;9.71;-0.14;0.0;9.8;-0.01;0.0;0.0;0.0;0.0;0.0;320.0;-4.08;35.34;-14.7;6.87;0.0;0.82;3.5;-0.01;33.87;24.786392;120.99741;;293.56188069555793;;;164.51613;;0 / 15;241004;2014-12-10 11:23:38:050
-0.16;0.01;9.7;-0.14;0.0;9.8;-0.01;0.0;0.0;0.0;0.0;0.0;320.0;-3.9;34.32;-12.84;7.02;0.0;0.82;3.5;-0.01;33.546;24.786392;120.99741;;293.56188069555793;;;164.51613;;0 / 16;241505;2014-12-10 11:23:38:551
-0.15;0.0;9.7;-0.14;0.0;9.8;0.0;0.0;0.0;0.0;0.0;0.0;320.0;-4.38;34.68;-14.34;6.84;0.0;0.82;3.5;-0.01;33.648;24.786392;120.99741;;293.56188069555793;;;164.51613;;0 / 16;242005;2014-12-10 11:23:39:051
-0.13;0.02;9.68;-0.14;0.0;9.8;0.0;-0.02;0.01;0.0;0.0;0.0;320.0;-4.19;34.25;-13.02;7.02;0.0;0.82;3.5;-0.01;33.233;24.786392;120.99741;;293.56188069555793;;;164.51613;;0 / 16;242505;2014-12-10 11:23:39:551
-0.16;0.01;9.7;-0.14;0.0;9.8;0.0;0.0;0.03;0.0;0.0;0.0;320.0;-4.08;36.48;-13.74;6.65;0.0;0.82;3.5;-0.01;33.371;24.786392;120.99741;;293.56188069555793;;;164.51613;;0 / 16;243005;2014-12-10 11:23:40:051
-0.14;0.01;9.7;-0.14;0.0;9.8;-0.01;0.01;0.0;0.0;-0.01;0.0;320.0;-4.5;34.55;-13.79;6.84;0.0;0.82;3.5;-0.01;33.387;24.786392;120.99741;;293.56188069555793;;;164.51613;;0 / 15;243505;2014-12-10 11:23:40:551
-0.14;0.0;9.72;-0.14;0.0;9.8;-0.01;0.0;0.02;0.0;0.0;0.0;320.0;-3.78;34.38;-14.28;7.04;0.0;0.82;3.5;-0.01;33.166;24.786392;120.99741;;293.56188069555793;;;164.51613;;0 / 15;244009;2014-12-10 11:23:41:055
-0.16;0.0;9.67;-0.14;0.0;9.8;0.0;0.01;0.01;0.0;0.0;0.0;320.0;-5.04;35.34;-14.46;8.45;0.0;0.82;3.5;-0.01;33.223;24.786392;120.99741;;293.56188069555793;;;164.51613;;0 / 15;244505;2014-12-10 11:23:41:551
-0.15;-0.02;9.69;-0.14;0.0;9.8;-0.01;-0.04;-0.04;0.0;0.0;0.0;320.0;-4.5;34.38;-14.58;7.07;0.0;0.82;3.5;-0.01;33.099;24.786392;120.99741;;293.56188069555793;;;164.51613;;0 / 15;245005;2014-12-10 11:23:42:051
-0.14;0.0;9.68;-0.14;0.0;9.8;0.0;-0.01;0.0;0.0;0.0;0.0;320.0;-4.56;34.32;-14.7;8.72;0.0;0.82;3.5;-0.01;33.283;24.786392;120.99741;;293.56188069555793;;;164.51613;;0 / 16;245505;2014-12-10 11:23:42:551
-0.15;0.0;9.68;-0.14;0.0;9.8;0.0;0.0;-0.01;0.0;0.0;0.0;320.0;-4.38;35.04;-14.34;6.84;0.0;0.82;3.5;-0.01;33.2;24.786392;120.99741;;293.56188069555793;;;164.51613;;0 / 16;246005;2014-12-10 11:23:43:051
-0.14;0.02;9.67;-0.14;0.0;9.8;0.0;0.0;-0.01;0.0;0.0;0.0;320.0;-4.62;34.38;-14.52;8.72;0.0;0.82;3.5;-0.01;33.1;24.786392;120.99741;;293.56188069555793;;;164.51613;;0 / 16;246510;2014-12-10 11:23:43:556
-0.14;0.01;9.71;-0.14;0.0;9.8;0.0;0.01;0.01;0.0;0.0;0.0;320.0;-4.44;36.0;-13.98;8.69;0.0;0.82;3.5;-0.01;33.595;24.786392;120.99741;;293.56188069555793;;;164.51613;;0 / 16;247005;2014-12-10 11:23:44:051
-0.15;0.0;9.65;-0.14;0.0;9.8;-0.01;0.0;-0.04;0.0;0.0;0.0;320.0;-4.38;34.8;-13.5;6.82;0.0;0.82;3.5;-0.01;33.431;24.786392;120.99741;;293.56188069555793;;;164.51613;;0 / 16;247504;2014-12-10 11:23:44:550
-0.15;0.0;9.69;-0.14;0.0;9.8;0.0;0.0;0.0;0.0;0.0;0.0;320.0;-4.92;33.59;-14.64;8.72;0.0;0.82;3.5;-0.01;33.379;24.786392;120.99741;;293.56188069555793;;;164.51613;;0 / 16;248005;2014-12-10 11:23:45:051
-0.15;-0.01;9.69;-0.14;0.0;9.8;0.0;-0.01;0.0;0.0;0.0;0.0;320.0;-3.95;34.8;-13.92;6.84;0.0;0.82;3.5;-0.01;32.932;24.786392;120.99741;;293.56188069555793;;;164.51613;;0 / 15;248505;2014-12-10 11:23:45:551
-0.12;0.05;9.64;-0.14;0.0;9.8;0.0;0.03;-0.06;0.0;0.0;0.0;320.0;-5.1;34.32;-13.86;8.69;0.0;0.82;3.5;-0.01;33.329;24.786392;120.99741;;293.56188069555793;;;164.51613;;0 / 15;249005;2014-12-10 11:23:46:051
-0.15;0.0;9.71;-0.14;0.0;9.8;0.0;0.0;0.0;0.0;0.0;0.0;320.0;-4.25;34.5;-14.1;6.84;0.0;0.82;3.5;-0.01;32.85;24.786392;120.99741;;293.56188069555793;;;164.51613;;0 / 16;249504;2014-12-10 11:23:46:550
-0.14;0.0;9.71;-0.14;0.0;9.8;0.0;0.0;0.01;0.0;0.0;0.0;320.0;-4.02;34.73;-13.56;6.84;0.0;0.82;3.5;-0.01;33.479;24.786392;120.99741;;293.56188069555793;;;164.51613;;0 / 16;250005;2014-12-10 11:23:47:051
-0.15;0.0;9.7;-0.14;0.0;9.8;0.0;0.0;0.0;0.0;0.0;0.0;320.0;-5.4;33.89;-14.82;8.72;0.0;0.82;3.5;-0.01;33.54;24.786392;120.99741;;293.56188069555793;;;164.51613;;0 / 16;250505;2014-12-10 11:23:47:551
-0.14;0.0;9.7;-0.14;0.0;9.8;0.0;0.0;0.0;0.0;0.0;0.0;320.0;-4.56;34.8;-14.04;8.45;0.0;0.82;3.5;-0.01;33.247;24.786392;120.99741;;293.56188069555793;;;164.51613;;0 / 16;251004;2014-12-10 11:23:48:050
-0.13;0.0;9.69;-0.14;0.0;9.8;0.0;0.0;-0.01;0.0;0.0;0.0;320.0;-4.31;34.5;-14.16;6.84;0.0;0.82;3.5;-0.01;32.951;24.786392;120.99741;;293.56188069555793;;;164.51613;;0 / 16;251505;2014-12-10 11:23:48:551
-0.14;0.0;9.68;-0.14;0.0;9.8;0.0;0.0;-0.01;0.0;0.0;0.0;320.0;-4.31;34.14;-15.12;7.07;0.0;0.82;3.5;-0.01;33.257;24.786392;120.99741;;293.56188069555793;;;164.51613;;0 / 16;252005;2014-12-10 11:23:49:051
-0.14;0.0;9.7;-0.14;0.0;9.8;0.0;0.0;0.0;0.0;0.0;0.0;320.0;-4.67;34.5;-13.14;8.43;0.0;0.82;3.5;-0.01;33.239;24.786392;120.99741;;293.56188069555793;;;164.51613;;0 / 16;252506;2014-12-10 11:23:49:552
-0.14;0.0;9.67;-0.14;0.0;9.8;0.0;0.0;-0.02;0.0;0.0;0.0;320.0;-4.79;34.38;-15.78;8.74;0.0;0.82;3.5;-0.01;33.248;24.786392;120.99741;;293.56188069555793;;;164.51613;;0 / 16;253005;2014-12-10 11:23:50:051
-0.14;0.0;9.69;-0.14;0.0;9.8;0.0;0.0;0.0;0.0;0.0;0.0;320.0;-5.28;34.5;-14.58;8.47;0.0;0.82;3.5;-0.01;33.176;24.786392;120.99741;;293.56188069555793;;;164.51613;;0 / 16;253505;2014-12-10 11:23:50:551
-0.13;0.0;9.68;-0.14;0.0;9.8;0.0;0.02;0.0;0.0;0.0;0.0;320.0;-3.48;34.86;-13.86;5.22;0.0;0.82;3.5;-0.01;33.448;24.786392;120.99741;;293.56188069555793;;;164.51613;;0 / 16;254004;2014-12-10 11:23:51:050
-0.13;0.0;9.7;-0.14;0.0;9.8;0.01;0.0;0.0;0.0;0.0;0.0;320.0;-4.44;33.84;-14.58;7.07;0.0;0.82;3.5;1010.06;47.865;24.786392;120.99741;;293.56188069555793;;;164.51613;;0 / 16;254505;2014-12-10 11:23:51:551
-0.14;0.03;9.68;-0.14;0.0;9.8;0.0;0.01;-0.01;0.0;0.0;0.0;320.0;-5.82;34.02;-15.12;10.36;0.0;0.82;3.5;1010.07;33.691;24.786392;120.99741;;293.56188069555793;;;164.51613;;0 / 16;255005;2014-12-10 11:23:52:051
-0.15;-0.03;9.72;-0.14;0.0;9.8;-0.01;-0.03;0.02;-0.01;0.0;0.0;320.0;-3.84;35.04;-14.34;6.84;0.0;0.82;3.5;-0.01;35.357;24.786392;120.99741;;293.56188069555793;;;164.51613;;0 / 16;255505;2014-12-10 11:23:52:551
-0.09;0.04;9.69;-0.14;0.0;9.8;0.05;0.04;0.0;0.0;-0.01;0.0;320.0;-4.79;34.25;-14.21;8.69;0.0;0.82;3.5;-0.01;33.249;24.786392;120.99741;;293.56188069555793;;;164.51613;;0 / 16;256005;2014-12-10 11:23:53:051
-0.08;0.05;9.69;-0.14;0.0;9.8;0.04;0.05;0.01;0.0;-0.01;0.0;320.0;-4.38;33.05;-14.34;7.25;0.0;0.82;3.5;-0.01;33.052;24.786392;120.99741;;293.56188069555793;;;164.51613;;0 / 16;256514;2014-12-10 11:23:53:560
-0.13;0.01;9.7;-0.14;0.0;9.8;0.0;0.0;0.0;0.0;0.0;0.0;320.0;-4.79;35.09;-15.0;7.02;0.0;0.82;3.5;-0.01;33.075;24.786392;120.99741;;293.56188069555793;;;164.51613;;0 / 16;257005;2014-12-10 11:23:54:051
-0.16;0.0;9.67;-0.14;0.0;9.8;-0.01;-0.01;-0.02;0.0;0.0;0.0;320.0;-5.1;34.68;-15.0;8.47;0.0;0.82;3.5;-0.01;33.185;24.786392;120.99741;;293.56188069555793;;;164.51613;;0 / 15;257505;2014-12-10 11:23:54:551
-0.14;0.0;9.7;-0.14;0.0;9.8;0.0;0.0;0.0;0.0;0.0;0.0;320.0;-4.31;34.98;-13.74;6.84;0.0;0.82;3.5;-0.01;33.13;24.786392;120.99741;;293.56188069555793;;;164.51613;;0 / 15;258004;2014-12-10 11:23:55:050
-0.13;0.0;9.68;-0.14;0.0;9.8;0.0;0.0;0.0;0.0;0.0;0.0;320.0;-5.28;34.2;-14.04;8.69;0.0;0.82;3.5;-0.01;34.322;24.786392;120.99741;;293.56188069555793;;;164.51613;;0 / 14;258504;2014-12-10 11:23:55:550
-0.16;0.0;9.71;-0.14;0.0;9.8;-0.02;0.0;0.0;0.0;0.0;0.0;320.0;-4.31;34.55;-14.58;6.87;0.0;0.82;3.5;-0.01;34.205;24.786392;120.99741;;293.56188069555793;;;164.51613;;0 / 14;259005;2014-12-10 11:23:56:051
-0.15;0.01;9.68;-0.14;0.0;9.8;0.0;0.0;-0.01;0.0;0.0;0.0;320.0;-3.95;34.5;-13.32;6.82;0.0;0.82;3.5;-0.01;33.07;24.786392;120.99741;;293.56188069555793;;;164.51613;;0 / 15;259505;2014-12-10 11:23:56:551
-0.15;0.01;9.68;-0.14;0.0;9.8;0.0;0.0;0.0;0.0;0.0;0.0;320.0;-4.98;34.86;-14.7;8.47;0.0;0.82;3.5;-0.01;32.884;24.786392;120.99741;;293.56188069555793;;;164.51613;;0 / 15;260005;2014-12-10 11:23:57:051
-0.16;0.0;9.7;-0.14;0.0;9.8;0.0;0.0;0.0;0.0;0.0;0.0;320.0;-4.31;33.66;-13.5;7.02;0.0;0.82;3.5;-0.01;33.557;24.786392;120.99741;;293.56188069555793;;;164.51613;;0 / 16;260505;2014-12-10 11:23:57:551
-0.15;0.0;9.69;-0.14;0.0;9.8;0.0;-0.01;-0.01;0.0;0.0;0.0;320.0;-4.92;34.07;-14.1;8.69;0.0;0.82;3.5;-0.01;44.472;24.786392;120.99741;;293.56188069555793;;;164.51613;;0 / 16;261004;2014-12-10 11:23:58:050
-0.11;0.03;9.7;-0.14;0.0;9.8;0.02;0.02;0.0;0.0;0.0;0.0;320.0;-4.5;35.09;-13.74;6.84;0.0;0.82;3.5;-0.01;37.977;24.786392;120.99741;;293.56188069555793;;;164.51613;;0 / 16;261505;2014-12-10 11:23:58:551
-0.15;0.01;9.69;-0.14;0.0;9.8;0.01;0.0;0.01;0.0;0.0;0.0;320.0;-4.73;33.66;-13.67;8.69;0.0;0.82;3.5;-0.01;33.318;24.786392;120.99741;;293.56188069555793;;;164.51613;;0 / 16;262005;2014-12-10 11:23:59:051
-0.14;0.01;9.68;-0.14;0.0;9.8;0.0;0.0;0.0;0.0;0.0;0.0;320.0;-4.85;34.5;-14.64;8.47;0.0;0.82;3.5;-0.01;37.791;24.786392;120.99741;;293.56188069555793;;;164.51613;;0 / 15;262505;2014-12-10 11:23:59:551
-0.15;0.0;9.7;-0.14;0.0;9.8;0.0;0.0;0.0;0.0;0.0;0.0;320.0;-4.85;33.48;-13.38;8.93;0.0;0.82;3.5;-0.01;33.386;24.786392;120.99741;;293.56188069555793;;;164.51613;;0 / 15;263012;2014-12-10 11:24:00:058
-0.14;0.0;9.7;-0.14;0.0;9.8;0.0;0.0;0.0;-0.01;0.0;0.0;320.0;-3.72;33.66;-13.32;7.02;0.0;0.82;3.5;-0.01;33.623;24.786392;120.99741;;293.56188069555793;;;164.51613;;0 / 15;263505;2014-12-10 11:24:00:551
-0.14;0.01;9.7;-0.14;0.0;9.8;0.0;0.0;0.0;0.0;0.0;0.0;320.0;-4.14;34.8;-13.56;6.84;0.0;0.82;3.5;-0.01;34.515;24.786392;120.99741;;293.56188069555793;;;164.51613;;0 / 15;264005;2014-12-10 11:24:01:051
-0.16;0.0;9.67;-0.14;0.0;9.8;-0.01;0.0;-0.02;0.0;0.0;0.0;320.0;-4.38;33.48;-13.32;7.23;0.0;0.82;3.5;-0.01;33.54;24.786392;120.99741;;293.56188069555793;;;164.51613;;0 / 15;264505;2014-12-10 11:24:01:551
-0.15;0.0;9.68;-0.14;0.0;9.8;0.01;0.0;-0.01;0.0;0.0;0.0;320.0;-4.02;33.71;-14.1;7.04;0.0;0.82;3.5;-0.01;33.36;24.786392;120.99741;;293.56188069555793;;;164.51613;;0 / 15;265005;2014-12-10 11:24:02:051
-0.14;-0.01;9.7;-0.14;0.0;9.8;0.0;-0.02;0.0;0.0;0.0;0.0;320.0;-4.62;35.52;-14.58;8.24;0.0;0.82;3.5;-0.01;33.286;24.786392;120.99741;;293.56188069555793;;;164.51613;;0 / 15;265505;2014-12-10 11:24:02:551
-0.14;0.0;9.7;-0.14;0.0;9.8;0.0;0.0;0.0;0.0;-0.01;0.0;320.0;-4.56;33.66;-14.04;8.69;0.0;0.82;3.5;-0.01;33.462;24.786392;120.99741;;293.56188069555793;;;164.51613;;0 / 15;266005;2014-12-10 11:24:03:051
-0.15;0.0;9.7;-0.14;0.0;9.8;0.0;0.0;0.0;0.0;0.0;0.0;320.0;-4.19;35.88;-13.74;6.65;0.0;0.82;3.5;-0.01;34.521;24.786392;120.99741;;293.56188069555793;;;164.51613;;0 / 15;266505;2014-12-10 11:24:03:551
-0.14;0.0;9.67;-0.14;0.0;9.8;0.0;0.0;-0.01;0.0;0.0;0.0;320.0;-3.9;34.91;-13.38;6.82;0.0;0.82;3.5;-0.01;38.463;24.786392;120.99741;;293.56188069555793;;;164.51613;;0 / 15;267005;2014-12-10 11:24:04:051
-0.13;0.0;9.7;-0.14;0.0;9.8;0.0;0.0;0.0;0.0;0.01;0.0;320.0;-4.38;34.62;-14.34;6.84;0.0;0.82;3.5;-0.01;33.079;24.786392;120.99741;;293.56188069555793;;;164.51613;;0 / 16;267505;2014-12-10 11:24:04:551
-0.14;0.0;9.69;-0.14;0.0;9.8;0.0;-0.01;0.0;0.0;0.0;0.0;320.0;-4.31;34.91;-14.28;6.84;0.0;0.82;3.5;-0.01;32.946;24.786392;120.99741;;293.56188069555793;;;164.51613;;0 / 16;268005;2014-12-10 11:24:05:051
-0.16;0.02;9.7;-0.14;0.0;9.8;-0.01;0.01;0.0;0.0;0.0;0.0;320.0;-3.84;34.55;-13.98;6.84;0.0;0.82;3.5;-0.01;33.29;24.786392;120.99741;;293.56188069555793;;;164.51613;;0 / 16;268505;2014-12-10 11:24:05:551
-0.15;0.01;9.67;-0.14;0.0;9.8;0.0;0.0;-0.01;0.0;0.0;0.0;320.0;-4.08;35.82;-13.5;6.63;0.0;0.82;3.5;-0.01;33.362;24.786392;120.99741;;293.56188069555793;;;164.51613;;0 / 16;269005;2014-12-10 11:24:06:051
-0.14;0.0;9.7;-0.14;0.0;9.8;0.0;-0.01;0.0;0.0;0.0;0.0;320.0;-3.84;35.82;-14.04;6.65;0.0;0.82;3.5;-0.01;32.975;24.786392;120.99741;;293.56188069555793;;;164.51613;;0 / 15;269505;2014-12-10 11:24:06:551
-0.14;0.0;9.7;-0.14;0.0;9.8;0.0;0.0;0.0;0.0;0.0;0.0;320.0;-4.5;34.2;-13.02;7.02;0.0;0.82;3.5;-0.01;33.126;24.786392;120.99741;;293.56188069555793;;;164.51613;;0 / 15;270005;2014-12-10 11:24:07:051
-0.16;0.0;9.69;-0.14;0.0;9.8;0.0;0.0;0.0;0.0;0.0;0.0;320.0;-4.25;34.98;-13.62;6.84;0.0;0.82;3.5;-0.01;36.388;24.786392;120.99741;;293.56188069555793;;;164.51613;;0 / 14;270509;2014-12-10 11:24:07:555
-0.14;0.0;9.69;-0.14;0.0;9.8;0.0;0.0;0.0;0.0;0.0;0.0;320.0;-4.5;34.38;-14.46;7.04;0.0;0.82;3.5;-0.01;33.246;24.786392;120.99741;;293.56188069555793;;;164.51613;;0 / 14;271004;2014-12-10 11:24:08:050
-0.13;0.0;9.72;-0.14;0.0;9.8;-0.02;0.0;-0.01;0.0;0.0;0.0;320.0;-4.19;34.43;-14.1;7.04;0.0;0.82;3.5;-0.01;32.778;24.786392;120.99741;;293.56188069555793;;;164.51613;;0 / 16;271505;2014-12-10 11:24:08:551
-0.14;0.01;9.68;-0.14;0.0;9.8;0.0;0.0;0.0;0.0;0.0;0.0;320.0;-4.92;35.28;-14.52;8.47;0.0;0.82;3.5;-0.01;33.08;24.786392;120.99741;;293.56188069555793;;;164.51613;;0 / 16;272005;2014-12-10 11:24:09:051
-0.14;0.0;9.68;-0.14;0.0;9.8;0.0;0.0;-0.01;0.0;0.0;0.0;320.0;-4.5;33.48;-14.64;7.28;0.0;0.82;3.5;-0.01;33.366;24.786392;120.99741;;293.56188069555793;;;164.51613;;0 / 16;272506;2014-12-10 11:24:09:552
-0.13;0.01;9.67;-0.14;0.0;9.8;0.01;0.01;0.0;0.0;-0.01;0.0;320.0;-4.25;34.07;-13.92;7.04;0.0;0.82;3.5;-0.01;33.367;24.786392;120.99741;;293.56188069555793;;;164.51613;;0 / 16;273005;2014-12-10 11:24:10:051
-0.13;0.01;9.7;-0.14;0.0;9.8;0.01;0.01;0.0;0.0;0.0;0.0;320.0;-3.66;35.28;-14.58;6.87;0.0;0.82;3.5;-0.01;35.365;24.786392;120.99741;;293.56188069555793;;;164.51613;;0 / 16;273505;2014-12-10 11:24:10:551
-0.11;0.01;9.7;-0.14;0.0;9.8;0.02;0.0;0.0;0.0;0.0;0.0;320.0;-4.38;34.02;-13.92;7.04;0.0;0.82;3.5;-0.01;41.733;24.786392;120.99741;;293.56188069555793;;;164.51613;;0 / 16;274005;2014-12-10 11:24:11:051
-0.14;0.01;9.67;-0.14;0.0;9.8;0.0;0.0;-0.02;0.0;0.0;0.0;320.0;-4.62;34.91;-13.74;8.45;0.0;0.82;3.5;-0.01;33.407;24.786392;120.99741;;293.56188069555793;;;164.51613;;0 / 15;274506;2014-12-10 11:24:11:552
-0.14;0.02;9.69;-0.14;0.0;9.8;0.0;0.01;0.0;0.0;0.0;0.0;320.0;-4.31;32.75;-13.14;7.23;0.0;0.82;3.5;-0.01;35.506;24.786392;120.99741;;293.56188069555793;;;164.51613;;0 / 15;275005;2014-12-10 11:24:12:051
-0.15;0.01;9.7;-0.14;0.0;9.8;0.0;0.0;0.01;0.0;0.0;0.0;320.0;-4.19;33.89;-14.16;7.04;0.0;0.82;3.5;-0.01;33.943;24.786392;120.99741;;293.56188069555793;;;164.51613;;0 / 16;275505;2014-12-10 11:24:12:551
-0.15;0.0;9.69;-0.14;0.0;9.8;0.0;-0.01;0.0;0.0;0.0;0.0;320.0;-4.73;35.16;-14.58;8.47;0.0;0.82;3.5;-0.01;33.548;24.786392;120.99741;;293.56188069555793;;;164.51613;;0 / 16;276005;2014-12-10 11:24:13:051
-0.14;0.01;9.69;-0.14;0.0;9.8;0.0;0.0;0.0;0.0;0.01;0.0;320.0;-4.44;33.89;-14.4;7.04;0.0;0.82;3.5;-0.01;34.656;24.786392;120.99741;;293.56188069555793;;;164.51613;;0 / 16;276505;2014-12-10 11:24:13:551
-0.14;0.02;9.69;-0.14;0.0;9.8;0.0;0.01;0.0;0.0;-0.01;0.0;320.0;-4.19;33.66;-13.74;7.04;0.0;0.82;3.5;-0.01;38.162;24.786392;120.99741;;293.56188069555793;;;164.51613;;0 / 16;277030;2014-12-10 11:24:14:076
-0.12;0.01;9.7;-0.14;0.0;9.8;0.02;0.0;0.01;0.0;0.0;0.0;320.0;-4.79;35.21;-14.58;8.47;0.0;0.82;3.5;-0.01;34.134;24.786392;120.99741;;293.56188069555793;;;164.51613;;0 / 16;277505;2014-12-10 11:24:14:551
-0.14;0.01;9.67;-0.14;0.0;9.8;0.02;0.0;0.0;0.0;0.0;0.0;320.0;-4.98;32.88;-13.25;8.93;0.0;0.82;3.5;-0.01;33.52;24.786392;120.99741;;293.56188069555793;;;164.51613;;0 / 16;278004;2014-12-10 11:24:15:050
-0.14;0.0;9.71;-0.14;0.0;9.8;0.0;-0.01;0.01;0.0;0.0;0.0;320.0;-3.66;34.25;-13.79;7.04;0.0;0.82;3.5;-0.01;33.757;24.786392;120.99741;;293.56188069555793;;;164.51613;;0 / 16;278505;2014-12-10 11:24:15:551
-0.13;0.0;9.69;-0.14;0.0;9.8;0.0;0.0;0.0;0.0;0.0;0.0;320.0;-4.25;33.41;-13.67;6.84;0.0;0.82;3.5;-0.01;35.165;24.786392;120.99741;;293.56188069555793;;;164.51613;;0 / 16;279005;2014-12-10 11:24:16:051
-0.15;0.0;9.69;-0.14;0.0;9.8;-0.01;0.0;0.0;0.0;0.0;0.0;320.0;-3.84;33.48;-13.62;7.25;-0.06;0.82;3.5;-0.01;33.358;24.786392;120.99741;;293.56188069555793;;;164.51613;;0 / 16;279504;2014-12-10 11:24:16:550
-0.13;0.01;9.69;-0.14;0.01;9.8;0.0;0.0;0.0;0.0;0.0;0.0;320.0;-3.54;34.8;-14.34;6.84;0.0;0.82;3.5;-0.01;34.891;24.786392;120.99741;;293.56188069555793;;;164.51613;;0 / 16;280005;2014-12-10 11:24:17:051
-0.13;0.01;9.7;-0.14;0.0;9.8;0.01;0.0;0.0;0.0;0.0;0.0;320.0;-4.08;33.59;-14.52;7.06;-0.06;0.82;3.5;-0.01;36.548;24.786392;120.99741;;293.56188069555793;;;164.51613;;0 / 16;280505;2014-12-10 11:24:17:551
-0.12;0.02;9.69;-0.14;0.0;9.8;0.01;0.01;0.0;0.0;0.0;0.0;320.0;-4.31;34.62;-14.1;6.84;0.0;0.82;3.5;-0.01;33.465;24.786392;120.99741;;293.56188069555793;;;164.51613;;0 / 16;281005;2014-12-10 11:24:18:051
-0.14;0.01;9.68;-0.14;0.0;9.8;0.0;0.01;0.0;0.0;0.01;0.0;320.0;-4.19;34.91;-14.1;6.84;0.0;0.82;3.5;-0.01;33.104;24.786392;120.99741;;293.56188069555793;;;164.51613;;0 / 16;281505;2014-12-10 11:24:18:551
-0.14;0.0;9.7;-0.14;0.0;9.8;0.0;0.0;0.0;0.0;0.0;0.01;320.0;-4.5;33.54;-14.04;7.04;0.0;0.82;3.5;-0.01;33.329;24.786392;120.99741;;293.56188069555793;;;164.51613;;0 / 16;282005;2014-12-10 11:24:19:051
-0.12;0.0;9.72;-0.14;0.0;9.8;0.01;0.0;0.02;0.0;0.0;0.0;320.0;-3.72;34.91;-13.5;6.82;0.0;0.82;3.5;-0.01;33.022;24.786392;120.99741;;293.56188069555793;;;164.51613;;0 / 16;282505;2014-12-10 11:24:19:551
-0.11;-0.01;9.69;-0.14;0.0;9.8;0.01;0.01;0.0;0.0;0.0;0.0;320.0;-4.79;33.12;-13.79;8.95;0.0;0.82;3.5;-0.01;33.275;24.786392;120.99741;;293.56188069555793;;;164.51613;;0 / 16;283005;2014-12-10 11:24:20:051
-0.14;0.0;9.69;-0.14;0.0;9.8;0.0;0.0;-0.01;0.0;0.0;0.0;320.0;-3.72;34.38;-14.34;7.04;0.0;0.82;3.5;-0.01;33.973;24.786392;120.99741;;293.56188069555793;;;164.51613;;0 / 15;283505;2014-12-10 11:24:20:551
-0.15;0.01;9.69;-0.14;0.0;9.8;0.0;-0.01;0.0;0.0;0.0;0.0;320.0;-4.62;35.7;-14.4;8.22;0.0;0.82;3.5;-0.01;33.164;24.786392;120.99741;;293.56188069555793;;;164.51613;;0 / 15;284005;2014-12-10 11:24:21:051
-0.14;0.01;9.68;-0.14;0.0;9.8;0.0;0.0;0.02;0.0;0.01;0.0;320.0;-4.31;34.38;-13.98;7.04;0.0;0.82;3.5;-0.01;32.968;24.786392;120.99741;;293.56188069555793;;;164.51613;;0 / 14;284505;2014-12-10 11:24:21:551
-0.15;0.0;9.68;-0.14;0.0;9.8;0.0;-0.01;0.02;0.0;0.0;0.0;320.0;-4.14;35.34;-14.21;6.84;0.0;0.82;3.5;-0.01;34.038;24.786392;120.99741;;293.56188069555793;;;164.51613;;0 / 14;285007;2014-12-10 11:24:22:053
-0.15;0.02;9.68;-0.14;0.0;9.8;-0.01;0.01;-0.01;0.0;0.0;0.0;320.0;-3.95;34.86;-14.1;6.84;0.0;0.82;3.5;-0.01;64.059;24.786392;120.99741;;293.56188069555793;;;164.51613;;0 / 15;285518;2014-12-10 11:24:22:564
-0.15;0.02;9.69;-0.14;0.0;9.8;-0.01;0.01;-0.01;0.0;0.0;0.0;320.0;-4.85;34.68;-14.52;8.47;0.0;0.82;3.5;-0.01;35.318;24.786392;120.99741;;293.56188069555793;;;164.51613;;0 / 15;286005;2014-12-10 11:24:23:051
-0.14;0.01;9.7;-0.14;0.0;9.8;0.0;0.0;0.0;0.0;0.0;0.0;320.0;-4.08;34.68;-14.21;6.84;0.0;0.82;3.5;-0.01;33.83;24.786392;120.99741;;293.56188069555793;;;164.51613;;0 / 15;286505;2014-12-10 11:24:23:551
-0.13;0.02;9.72;-0.14;0.0;9.8;0.01;0.0;0.02;0.0;0.0;0.0;320.0;-4.67;33.78;-14.28;8.69;0.0;0.82;3.5;-0.01;35.29;24.786392;120.99741;;293.56188069555793;;;164.51613;;0 / 15;287005;2014-12-10 11:24:24:051
-0.13;0.02;9.71;-0.14;0.0;9.8;0.01;0.01;0.01;0.0;0.0;0.0;320.0;-4.5;34.68;-14.4;6.84;0.0;0.82;3.5;-0.01;33.819;24.786392;120.99741;;293.56188069555793;;;164.51613;;0 / 16;287504;2014-12-10 11:24:24:550
-0.15;0.01;9.7;-0.14;0.0;9.8;0.0;0.0;0.0;0.0;0.0;0.0;320.0;-3.9;34.38;-13.92;7.04;0.0;0.82;3.5;-0.01;33.87;24.786392;120.99741;;293.56188069555793;;;164.51613;;0 / 16;288005;2014-12-10 11:24:25:051
-0.15;0.01;9.68;-0.14;0.0;9.8;0.01;0.0;0.01;0.0;0.0;0.0;320.0;-4.56;34.07;-14.58;8.72;0.0;0.82;3.5;-0.01;33.323;24.786392;120.99741;;293.56188069555793;;;164.51613;;0 / 16;288505;2014-12-10 11:24:25:551
-0.14;0.03;9.68;-0.14;0.0;9.8;0.0;0.02;-0.02;0.0;0.0;0.0;320.0;-4.02;36.12;-14.34;6.65;0.0;0.82;3.5;-0.01;33.62;24.786392;120.99741;;293.56188069555793;;;164.51613;;0 / 16;289005;2014-12-10 11:24:26:051
-0.15;0.02;9.68;-0.14;0.0;9.8;0.0;0.01;-0.01;0.0;0.0;0.0;320.0;-4.14;35.93;-13.79;6.65;0.0;0.82;3.5;-0.01;33.24;24.786392;120.99741;;293.56188069555793;;;164.51613;;0 / 15;289505;2014-12-10 11:24:26:551
-0.14;0.01;9.69;-0.14;0.0;9.8;0.0;0.0;0.0;0.0;0.0;0.0;320.0;-5.04;33.84;-15.0;8.72;0.0;0.82;3.5;-0.01;33.216;24.786392;120.99741;;293.56188069555793;;;164.51613;;0 / 15;290005;2014-12-10 11:24:27:051
-0.15;0.01;9.71;-0.14;0.0;9.8;0.0;0.0;0.01;0.0;0.0;0.0;320.0;-4.02;34.8;-13.38;6.82;0.0;0.82;3.5;-0.01;33.292;24.786392;120.99741;;293.56188069555793;;;164.51613;;0 / 16;290505;2014-12-10 11:24:27:551
-0.19;0.0;9.71;-0.14;0.0;9.8;-0.04;0.0;0.0;0.0;0.01;0.0;320.0;-5.28;34.2;-14.4;8.69;0.0;0.82;3.5;-0.01;33.675;24.786392;120.99741;;293.56188069555793;;;164.51613;;0 / 16;291005;2014-12-10 11:24:28:051
-0.16;0.0;9.68;-0.14;0.01;9.8;-0.01;0.0;0.0;0.0;0.0;0.0;320.0;-4.38;34.5;-14.1;6.84;0.0;0.82;3.5;-0.01;34.417;24.786392;120.99741;;293.56188069555793;;;164.51613;;0 / 15;291505;2014-12-10 11:24:28:551
-0.19;-0.03;9.68;-0.14;0.01;9.8;-0.04;-0.03;0.0;0.0;0.0;0.0;320.0;-3.54;34.38;-13.67;7.04;-0.06;0.82;3.5;-0.01;33.238;24.786392;120.99741;;293.56188069555793;;;164.51613;;0 / 15;292010;2014-12-10 11:24:29:056
-0.15;-0.03;9.69;-0.14;0.01;9.8;-0.01;-0.04;0.0;0.0;0.0;0.0;320.0;-4.98;34.32;-14.88;8.71;-0.06;0.82;3.5;-0.01;34.124;24.786392;120.99741;;293.56188069555793;;;164.51613;;0 / 14;292504;2014-12-10 11:24:29:550
-0.16;0.0;9.68;-0.14;0.01;9.8;-0.01;0.0;0.0;0.0;0.0;0.0;320.0;-3.72;34.8;-14.34;6.84;-0.06;0.82;3.5;-0.01;32.962;24.786392;120.99741;;293.56188069555793;;;164.51613;;0 / 14;293005;2014-12-10 11:24:30:051
-0.13;0.0;9.72;-0.14;0.01;9.8;0.01;0.0;0.02;0.0;0.0;0.0;320.0;-3.9;34.55;-14.4;6.84;-0.06;0.82;3.5;-0.01;38.561;24.786392;120.99741;;293.56188069555793;;;164.51613;;0 / 16;293505;2014-12-10 11:24:30:551
-0.15;0.0;9.68;-0.14;0.01;9.8;-0.01;0.0;-0.01;0.0;0.0;0.0;320.0;-5.22;34.02;-14.58;8.71;-0.06;0.82;3.5;-0.01;35.002;24.786392;120.99741;;293.56188069555793;;;164.51613;;0 / 16;294004;2014-12-10 11:24:31:050
